gyro_x (deg/s),gyro_y (deg/s),gyro_z (deg/s)
2.746655856444996657e-01,1.008335650517713650e-01,5.001483304028552235e-01
5.209488278979920173e-01,1.913302707290606697e-01,9.494233177620533537e-01
7.422334666228737055e-01,2.738878584309974440e-01,1.353527462518527624e+00
9.408606258249918586e-01,3.497757316047152010e-01,1.716870538717910621e+00
1.118973847732417592e+00,4.200262072458343932e-01,2.043442456845196986e+00
1.278531287113023662e+00,4.854809294965817257e-01,2.336850297418426869e+00
1.421318154343323759e+00,5.468281882272223449e-01,2.600352904758817640e+00
1.548959177946417354e+00,6.046328794267160633e-01,2.836892882007156391e+00
1.662930740922036854e+00,6.593605893424825393e-01,3.049126096971940036e+00
1.764572630619724025e+00,7.113968787639962654e-01,3.239448718950297401e+00
1.855099216952869945e+00,7.610627624226712351e-01,3.410021940773222848e+00
1.935610027286819079e+00,8.086271186624126583e-01,3.562794480616386927e+00
2.007099690902078404e+00,8.543166083601042571e-01,3.699523089216041338e+00
2.070467170010839908e+00,8.983236293759676583e-01,3.821791140443990376e+00
2.126524379962536848e+00,9.408126877774630747e-01,3.931025489886949220e+00
2.176004119450087870e+00,9.819254919822129057e-01,4.028511760643333162e+00
2.219567397732720604e+00,1.021785029300065650e+00,4.115408164554642312e+00
2.257810141231823220e+00,1.060498849946813094e+00,4.192757992358526309e+00
2.291269353304335787e+00,1.098161669363525217e+00,4.261500933289546822e+00
2.320428735576995027e+00,1.134857493316370869e+00,4.322483253793349078e+00
2.345723806427836067e+00,1.170661301203932636e+00,4.376467038607196436e+00
2.367546568759988368e+00,1.205640415046889125e+00,4.424138485762743045e+00
2.386249749996906200e+00,1.239855605188604271e+00,4.466115440105126844e+00
2.402150653027279592e+00,1.273361988938033651e+00,4.502954136951106356e+00
2.415534628605386480e+00,1.306209755283711527e+00,4.535155316709845508e+00
2.426658246181527367e+00,1.338444776378452827e+00,4.563169751603902924e+00
2.435752153146771182e+00,1.370109099970050703e+00,4.587403183294763487e+00
2.443023649860668112e+00,1.401241353860910976e+00,4.608220818412345210e+00
2.448659016630288843e+00,1.431877107956778916e+00,4.625951350160852016e+00
2.452825626660065872e+00,1.462049158938315330e+00,4.640890611754392658e+00
2.455673848872362175e+00,1.491787768202612163e+00,4.653304821663830637e+00
2.457338750616075540e+00,1.521120918022832225e+00,4.663433574202015208e+00
2.457941648292914838e+00,1.550074450029663486e+00,4.671492461748908198e+00
2.457591483274013111e+00,1.578672271632562518e+00,4.677675497951617523e+00
2.456386090889656426e+00,1.606936485249731428e+00,4.682157260725661629e+00
2.454413324438048161e+00,1.634887526928928025e+00,4.685094833038639273e+00
2.451752055774920613e+00,1.662544284497856406e+00,4.686629565324266444e+00
2.448473094234885572e+00,1.689924210569903051e+00,4.686888643132821386e+00
2.444640017063222093e+00,1.717043423147145642e+00,4.685986497790168848e+00
2.440309883652141743e+00,1.743916796124378887e+00,4.684026109105396962e+00
2.435533925645009923e+00,1.770558044884372517e+00,4.681100122309073797e+00
2.430358119382071358e+00,1.796979803710816004e+00,4.677291905526619331e+00
2.424823738147131813e+00,1.823193713893122458e+00,4.672676478358501306e+00
2.418967824820647206e+00,1.849210473075032946e+00,4.667321343750217011e+00
2.412823622471107488e+00,1.875039915031614157e+00,4.661287248909410152e+00
2.406420967308871894e+00,1.900691065348367959e+00,4.654628862245153265e+00
2.399786640487937994e+00,1.926172190914444249e+00,4.647395386209238310e+00
2.392944672278436880e+00,1.951490867963326714e+00,4.639631103183742056e+00
2.385916626360694792e+00,1.976654023795634929e+00,4.631375874479765287e+00
2.378721862595168268e+00,2.001667976380148595e+00,4.622665589406580011e+00
2.371377744654709296e+00,2.026538494142142266e+00,4.613532555819904957e+00
2.363899860736048630e+00,2.051270820507774761e+00,4.604005869166632792e+00
2.356302199443978562e+00,2.075869723035386638e+00,4.594111734446828521e+00
2.348597315746043357e+00,2.100339522103956469e+00,4.583873757086171175e+00
2.340796464988221359e+00,2.124684128898917113e+00,4.573313205060747677e+00
2.332909768264310735e+00,2.148907077034822422e+00,4.562449249631558956e+00
2.324946287334457740e+00,2.173011543007502322e+00,4.551299171343357486e+00
2.316914168468052537e+00,2.197000387909641805e+00,4.539878550032498516e+00
2.308820716796778694e+00,2.220876163820172167e+00,4.528201449434789971e+00
2.300672492361824251e+00,2.244641157451332525e+00,4.516280552578211704e+00
2.292475380709344090e+00,2.268297389599208014e+00,4.504127324052629611e+00
2.284234656111800543e+00,2.291846656861976417e+00,4.491752105525142369e+00
2.275955071950901853e+00,2.315290539252561341e+00,4.479164260624176386e+00
2.267640875096459396e+00,2.338630411342152993e+00,4.466372247125562467e+00
2.259295889381626399e+00,2.361867474766598640e+00,4.453383730768325499e+00
2.250923545519501801e+00,2.385002759699646813e+00,4.440205643609837161e+00
2.242526918816099446e+00,2.408037142113143236e+00,4.426844286172985754e+00
2.234108776010727659e+00,2.430971356911256098e+00,4.413305364920491414e+00
2.225671600661959904e+00,2.453806013943024222e+00,4.399594073696503571e+00
2.217217622170252866e+00,2.476541600101743512e+00,4.385715131254543486e+00
2.208748843252821725e+00,2.499178493569128801e+00,4.371672839548892853e+00
2.200267063747527008e+00,2.521716986637385638e+00,4.357471120104935203e+00
2.191773895288556595e+00,2.544157256867978667e+00,4.343113564087064837e+00
2.183270796170567962e+00,2.566499421166398065e+00,4.328603452546229136e+00
2.174759064278231957e+00,2.588743508957858097e+00,4.313943788292895931e+00
2.166239884178454034e+00,2.610889483768984221e+00,4.299137342381381011e+00
2.157714297372251622e+00,2.632937247526045077e+00,4.284186661728607071e+00
2.149183262912778947e+00,2.654886647269031119e+00,4.269094095405293388e+00
2.140647630439812321e+00,2.676737473075450069e+00,4.253861818200994627e+00
2.132108170396576963e+00,2.698489471133737272e+00,4.238491847987320149e+00
2.123565572359921827e+00,2.720142341093816363e+00,4.222986057365494261e+00
2.115020462548790725e+00,2.741695745304741028e+00,4.207346202425865656e+00
2.106473399734202889e+00,2.763149320206276460e+00,4.191573919313550611e+00
2.097924892146663112e+00,2.784502653915770676e+00,4.175670745554993069e+00
2.089375396878665470e+00,2.805755321392630730e+00,4.159638124566871653e+00
2.080825325096892442e+00,2.826906860608201288e+00,4.143477428913364236e+00
2.072275049540769132e+00,2.847956790078529643e+00,4.127189950231452187e+00
2.063724905331370429e+00,2.868904612741831617e+00,4.110776918348670428e+00
2.055175199539719610e+00,2.889749801929506479e+00,4.094239510605352628e+00
2.046626207269405473e+00,2.910491827640755869e+00,4.077578850794687959e+00
2.038078177574353056e+00,2.931130134829675882e+00,4.060796014931907116e+00
2.029531339357089514e+00,2.951664162429456173e+00,4.043892043333254804e+00
2.020985897410577437e+00,2.972093326622441189e+00,4.026867939059043167e+00
2.012442042752286220e+00,2.992417046066223829e+00,4.009724679710863882e+00
2.003899938894359245e+00,3.012634727256882972e+00,3.992463199123656548e+00
1.995359748632342667e+00,3.032745767758779909e+00,3.975084425931451282e+00
1.986821611148240851e+00,3.052749555387711311e+00,3.957589254113248689e+00
1.978285659442094335e+00,3.072645477515904666e+00,3.939978571121013573e+00
1.969752007711093933e+00,3.092432916636632445e+00,3.922253229554375942e+00
1.961220771756180037e+00,3.112111246263054909e+00,3.904414091354295735e+00
1.952692049275062569e+00,3.131679846229240560e+00,3.886461983276747745e+00
1.944165936095972214e+00,3.151138081031588101e+00,3.868397737046857632e+00
1.935642517945177721e+00,3.170485323813874157e+00,3.850222169492552915e+00
1.927121871962764299e+00,3.189720945463295543e+00,3.831936089463431117e+00
1.918604078321281436e+00,3.208844312732589188e+00,3.813540298933205452e+00
1.910089204317036549e+00,3.227854794634965607e+00,3.795035599644989599e+00
1.901577314809741015e+00,3.246751762869854119e+00,3.776422779539009955e+00
1.893068469190591019e+00,3.265534580092833927e+00,3.757702635156009219e+00
1.884562723337735779e+00,3.284202624898319378e+00,3.738875949532503462e+00
1.876060138757186024e+00,3.302755262933765312e+00,3.719943506150987567e+00
1.867560759812550986e+00,3.321191873714954390e+00,3.700906091575225432e+00
1.859064637535559283e+00,3.339511829500993567e+00,3.681764486717823637e+00
1.850571818052263451e+00,3.357714515051259507e+00,3.662519473839229711e+00
1.842082344158276763e+00,3.375799308449107361e+00,3.643171840501552516e+00
1.833596258251313005e+00,3.393765591411761040e+00,3.623722364315023814e+00
1.825113601956644516e+00,3.411612757940900575e+00,3.604171831072452648e+00
1.816634414770086137e+00,3.429340194524692631e+00,3.584521024809273815e+00
1.808158735081163204e+00,3.446947293755120878e+00,3.564770733242371925e+00
1.799686592540814978e+00,3.464433458418532119e+00,3.544921740788433251e+00
1.791218032118324421e+00,3.481798089829586385e+00,3.524974842504972283e+00
1.782753081769975712e+00,3.499040594239834601e+00,3.504930827787033465e+00
1.774291776231764262e+00,3.516160377774605106e+00,3.484790492353996516e+00
1.765834148071654397e+00,3.533156855467912028e+00,3.464554631191185674e+00
1.757380226666163114e+00,3.550029450448684898e+00,3.444224045184773875e+00
1.748930048551338157e+00,3.566777581117473783e+00,3.423799535976867148e+00
1.740483642920226837e+00,3.583400675990210615e+00,3.403281903721151913e+00
1.732041037559467034e+00,3.599898168064629811e+00,3.382671963440730512e+00
1.723602264546904017e+00,3.616269490899508554e+00,3.361970520257297146e+00
1.715167348284153181e+00,3.632514090928883110e+00,3.341178389175250452e+00
1.706736321959358982e+00,3.648631410003998266e+00,3.320296384419722635e+00
1.698309215127328686e+00,3.664620902736686947e+00,3.299325324410621985e+00
1.689886054990319852e+00,3.680482022231903905e+00,3.278266035024518743e+00
1.681466866074186273e+00,3.696214231756191904e+00,3.257119339879799735e+00
1.673051679998264873e+00,3.711816995308890199e+00,3.235886069568362000e+00
1.664640522910647791e+00,3.727289789544015353e+00,3.214567049989488279e+00
1.656233419771572901e+00,3.742632084972313145e+00,3.193163123327568798e+00
1.647830401743512363e+00,3.757843367739981844e+00,3.171675120268044878e+00
1.639431494280984003e+00,3.772923121384710310e+00,3.150103886382281448e+00
1.631036724559627782e+00,3.787870843583664104e+00,3.128450258788216143e+00
1.622646116442140629e+00,3.802686023727762876e+00,3.106715093165719033e+00
1.614259698943074195e+00,3.817368175264705066e+00,3.084899237338538214e+00
1.605877497712256075e+00,3.831916800182170846e+00,3.063003539597043634e+00
1.597499537657954827e+00,3.846331413283345935e+00,3.041028861581415832e+00
1.589125850147653729e+00,3.860611533768493420e+00,3.018976062620522427e+00
1.580756454659928645e+00,3.874756693049047129e+00,2.996846002840114931e+00
1.572391382447255737e+00,3.888766414999590193e+00,2.974639546861064243e+00
1.564030655218240140e+00,3.902640239509880260e+00,2.952357565272679452e+00
1.555674303270722980e+00,3.916377708380179623e+00,2.930000928465005483e+00
1.547322350556518122e+00,3.929978369193254384e+00,2.907570507259438664e+00
1.538974820770905083e+00,3.943441775399670224e+00,2.885067186688120788e+00
1.530631740131359386e+00,3.956767486506095111e+00,2.862491841721084285e+00
1.522293135866347402e+00,3.969955064614028029e+00,2.839845354780859754e+00
1.513959034172698281e+00,3.983004083893728176e+00,2.817128612178448233e+00
1.505629461855227280e+00,3.995914121311848088e+00,2.794342501457753869e+00
1.497304438694337048e+00,4.008684756057841803e+00,2.771487914238635497e+00
1.488983996234330087e+00,4.021315579862457135e+00,2.748565743700089214e+00
1.480668158381248656e+00,4.033806186108865433e+00,2.725576887887978472e+00
1.472356949006955018e+00,4.046156171143164393e+00,2.702522243159835469e+00
1.464050394749508266e+00,4.058365145100223614e+00,2.679402715538852675e+00
1.455748520254097178e+00,4.070432717397021172e+00,2.656219205417118978e+00
1.447451350048277297e+00,4.082358507262641822e+00,2.632972621188249374e+00
1.439158914204993422e+00,4.094142138264535546e+00,2.609663871150993852e+00
1.430871232263232873e+00,4.105783239996285694e+00,2.586293866796324004e+00
1.422588333462630805e+00,4.117281445385029492e+00,2.562863521704694669e+00
1.414310239070579289e+00,4.128636401433404046e+00,2.539373753239162923e+00
1.406036982364231580e+00,4.139847752569268735e+00,2.515825477669735299e+00
1.397768578791837690e+00,4.150915153629465060e+00,2.492219620125941670e+00
1.389505057055262061e+00,4.161838264979237145e+00,2.468557100509390256e+00
1.381246446328388222e+00,4.172616753033074666e+00,2.444838847901523504e+00
1.372992770282263297e+00,4.183250287441039994e+00,2.421065784742697069e+00
1.364744047410360039e+00,4.193738548675875144e+00,2.397238842803616876e+00
1.356500313042584560e+00,4.204081221949010683e+00,2.373358955973490669e+00
1.348261584185682871e+00,4.214277995308131963e+00,2.349427053496613294e+00
1.340027891367542523e+00,4.224328564894141991e+00,2.325444076113005742e+00
1.331799255690688355e+00,4.234232638502054336e+00,2.301410957516246913e+00
1.323575703147046090e+00,4.243989920952518702e+00,2.277328641766028561e+00
1.315357262696592366e+00,4.253600129615673353e+00,2.253198063973326892e+00
1.307143954791345708e+00,4.263062985533117022e+00,2.229020172431854352e+00
1.298935804792202831e+00,4.272378216590793087e+00,2.204795909101753715e+00
1.290732841309550238e+00,4.281545557453836359e+00,2.180526227286244012e+00
1.282535085327711766e+00,4.290564749498161135e+00,2.156212068264885318e+00
1.274342563285238539e+00,4.299435534230799938e+00,2.131854386823716752e+00
1.266155301454058080e+00,4.308157669072890883e+00,2.107454129570176082e+00
1.257973323024945023e+00,4.316730912208222470e+00,2.083012258370875447e+00
1.249796655064133510e+00,4.325155030412887847e+00,2.058529718792958985e+00
1.241625318057727023e+00,4.333429791588073066e+00,2.034007473741370919e+00
1.233459341957953592e+00,4.341554979996385732e+00,2.009446479077109604e+00
1.225298748917787561e+00,4.349530374945373090e+00,1.984847695078648666e+00
1.217143564040453763e+00,4.357355769789873712e+00,1.960212080363368914e+00
1.208993814493962260e+00,4.365030961892819583e+00,1.935540598930911127e+00
1.200849521918814444e+00,4.372555752668944251e+00,1.910834214562721733e+00
1.192710710603615221e+00,4.379929955639625838e+00,1.886093888054131584e+00
1.184577412588617706e+00,4.387153381183299672e+00,1.861320589858741492e+00
1.176449640205772251e+00,4.394225861036907155e+00,1.836515283373076679e+00
1.168327428046691097e+00,4.401147216963397391e+00,1.811678938979187636e+00
1.160210799456738329e+00,4.407917287732413314e+00,1.786812527787098093e+00
1.152099776893571681e+00,4.414535913698932390e+00,1.761917016226003163e+00
1.143994388220548997e+00,4.421002945538378803e+00,1.736993373479962965e+00
1.135894651121937216e+00,4.427318235717077499e+00,1.712042576977294450e+00
1.127800595352008051e+00,4.433481647760007860e+00,1.687065596030871584e+00
1.119712248609660232e+00,4.439493045860650078e+00,1.662063403456484734e+00
1.111629630598147900e+00,4.445352307638830602e+00,1.637036977703691720e+00
1.103552767481099206e+00,4.451059314332014516e+00,1.611987293608590610e+00
1.095481682118194522e+00,4.456613948527628821e+00,1.586915325049285563e+00
1.087416403639130946e+00,4.462016108648523272e+00,1.561822047860651708e+00
1.079356950689644323e+00,4.467265694812765808e+00,1.536708443573141514e+00
1.071303350279042998e+00,4.472362609695220037e+00,1.511575485964292476e+00
1.063255632255670990e+00,4.477306767564641632e+00,1.486424156780580264e+00
1.055213813915274246e+00,4.482098087813314535e+00,1.461255434306800716e+00
1.047177922897118085e+00,4.486736501304555702e+00,1.436070294331329045e+00
1.039147980568597918e+00,4.491221934321472986e+00,1.410869721350413553e+00
1.031124015291228657e+00,4.495554326848459681e+00,1.385654693120414338e+00
1.023106051726427879e+00,4.499733624622381356e+00,1.360426194158495861e+00
1.015094110848506759e+00,4.503759783571473108e+00,1.335185199408563950e+00
1.007088220430518932e+00,4.507632758516966653e+00,1.309932692737770354e+00
9.990884020459407378e-01,4.511352512165372808e+00,1.284669656542845262e+00
9.910946834110048176e-01,4.514919020176393794e+00,1.259397070350465775e+00
9.831070819696499097e-01,4.518332262000442689e+00,1.234115917930912021e+00
9.751256311692783063e-01,4.521592217007794012e+00,1.208827178093821564e+00
9.671503493407576091e-01,4.524698878021687243e+00,1.183531834501972302e+00
9.591812635567503742e-01,4.527652243242830998e+00,1.158230869015793862e+00
9.512183962784152014e-01,4.530452316599876461e+00,1.132925259927625827e+00
9.432617703578282109e-01,4.533099110179716895e+00,1.107615992316624220e+00
9.353114168719425248e-01,4.535592637298462293e+00,1.082304048827796183e+00
9.273673513793901924e-01,4.537932925133984163e+00,1.056990403224877806e+00
9.194296035479376794e-01,4.540119998888410890e+00,1.031676042755796940e+00
9.114981964442416817e-01,4.542153900198340644e+00,1.006361947385189026e+00
9.035731523803846033e-01,4.544034669877875743e+00,9.810490937850436799e-01
8.956544975409385101e-01,4.545762356195973908e+00,9.557384683091111333e-01
8.877422560493931636e-01,4.547337016701180623e+00,9.304310426292423664e-01
8.798364514152247073e-01,4.548758718036339133e+00,9.051278000714486627e-01
8.719371063178987802e-01,4.550027519259271180e+00,8.798297150700474800e-01
8.640442461566131271e-01,4.551143504487098923e+00,8.545377695485378844e-01
8.561578979733691641e-01,4.552106752354245778e+00,8.292529415618427047e-01
8.482780814441135409e-01,4.552917350464949386e+00,8.039762066643770799e-01
8.404048217410103883e-01,4.553575393621422052e+00,7.787085375423873357e-01
8.325381421568827101e-01,4.554080986422672339e+00,7.534509123601961234e-01
8.246780681222778409e-01,4.554434234106379265e+00,7.282043048120111495e-01
8.168246234614475743e-01,4.554635252207502205e+00,7.029696865746523082e-01
8.089778313420016298e-01,4.554684159561364964e+00,6.777480340545544157e-01
8.011377173885265712e-01,4.554581083257262186e+00,6.525403182005342639e-01
7.933043015614055227e-01,4.554326159847346567e+00,6.273475108280420764e-01
7.854776084810078940e-01,4.553919529172135938e+00,6.021705753690943519e-01
7.776576692519941991e-01,4.553361333853376713e+00,5.770104892978158428e-01
7.698444985997822121e-01,4.552651730012071241e+00,5.518682160477142995e-01
7.620381264181991243e-01,4.551790875188777896e+00,5.267447222648087291e-01
7.542385712925029351e-01,4.550778933778843793e+00,5.016409737709822680e-01
7.464458628172812027e-01,4.549616083762598073e+00,4.765579344800280892e-01
7.386600183374049111e-01,4.548302497558167623e+00,4.514965699830159607e-01
7.308810655119282185e-01,4.546838364530130683e+00,4.264578394353793489e-01
7.231090300631183299e-01,4.545223872925802766e+00,4.014427040640393685e-01
7.153439295545964693e-01,4.543459216229622122e+00,3.764521202958448498e-01
7.075857909003588908e-01,4.541544608418345952e+00,3.514870512125789492e-01
6.998346414370834045e-01,4.539480253734581083e+00,3.265484497531244701e-01
6.920904986274811765e-01,4.537266369055220849e+00,3.016372696016934030e-01
6.843533873314490146e-01,4.534903177544728159e+00,2.767544646752462811e-01
6.766233359673570202e-01,4.532390907710669659e+00,2.519009852181062215e-01
6.689003641637200070e-01,4.529729797839019412e+00,2.270777840889010024e-01
6.611844947602399936e-01,4.526920087863947728e+00,2.022858094428922060e-01
6.534757500148630216e-01,4.523962026956410476e+00,1.775260025010255149e-01
6.457741588775061103e-01,4.520855864892284970e+00,1.527993144848155960e-01
6.380797393257799932e-01,4.517601869897388767e+00,1.281066849462621227e-01
6.303925188661082535e-01,4.514200301797555603e+00,1.034490532488328424e-01
6.227125196973329890e-01,4.510651438399083446e+00,7.882736176152810303e-02
6.150397648943615181e-01,4.506955556886441450e+00,5.424254685124652725e-02
6.073742724373987212e-01,4.503112944131087758e+00,2.969554219724895167e-02
5.997160772795470107e-01,4.499123891506776829e+00,5.187283119500244767e-03
5.920651939547096898e-01,4.494988694446238497e+00,-1.928129764523445200e-02
5.844216490934655006e-01,4.490707660563955095e+00,-4.370927649783187818e-02
5.767854621836234763e-01,4.486281095877927783e+00,-6.809572343018774343e-02
5.691566630365378909e-01,4.481709320634585936e+00,-9.243971660655964095e-02
5.615352699265262482e-01,4.476992654972170804e+00,-1.167403280799708121e-01
5.539213055649856443e-01,4.472131429484887732e+00,-1.409966425132375967e-01
5.463147953717523153e-01,4.467125975815763539e+00,-1.652077404501031688e-01
5.387157640117340440e-01,4.461976636783194117e+00,-1.893727071520796834e-01
5.311242325221873228e-01,4.456683759606655748e+00,-2.134906255543698728e-01
5.235402232333630224e-01,4.451247694535032551e+00,-2.375605885504608050e-01
5.159637596770567658e-01,4.445668802576533629e+00,-2.615816863277280468e-01
5.083948668392995751e-01,4.439947446606614889e+00,-2.855530164566935092e-01
5.008335649943299606e-01,4.434083998755171230e+00,-3.094736717681202398e-01
4.932798792117250586e-01,4.428078837115040578e+00,-3.333427548652584393e-01
4.857338306778807846e-01,4.421932342221476908e+00,-3.571593652239326566e-01
4.781954443740384919e-01,4.415644902919849457e+00,-3.809226083774032157e-01
4.706647447763652181e-01,4.409216913604934618e+00,-4.046315946797700569e-01
4.631417489292746770e-01,4.402648776109430173e+00,-4.282854291027634042e-01
4.556264845435449296e-01,4.395940895406310389e+00,-4.518832287221836719e-01
4.481189750158930396e-01,4.389093679626241418e+00,-4.754241070875200870e-01
4.406192396593161531e-01,4.382107557978175194e+00,-4.989071868158226342e-01
4.331273017903070066e-01,4.374982942952224896e+00,-5.223315836724142791e-01
4.256431915998454829e-01,4.367720270614647404e+00,-5.456964283119468684e-01
4.181669199442853424e-01,4.360319974063008530e+00,-5.690008429735443629e-01
4.106985179454873958e-01,4.352782494686295856e+00,-5.922439595392123834e-01
4.032380060809866995e-01,4.345108279163754972e+00,-6.154249171670748142e-01
3.957854062051339161e-01,4.337297781256618912e+00,-6.385428452903458840e-01
3.883407400745356175e-01,4.329351456793796515e+00,-6.615968865762131834e-01
3.809040342676616175e-01,4.321269773125159475e+00,-6.845861869630947005e-01
3.734753099016713818e-01,4.313053196751363672e+00,-7.075098866895080940e-01
3.660545884311456888e-01,4.304702202418811297e+00,-7.303671453091783450e-01
3.586418917493219283e-01,4.296217274618935100e+00,-7.531571059515004274e-01
3.512372423935289367e-01,4.287598901019888942e+00,-7.758789283899061306e-01
3.438406675857803574e-01,4.278847565825021348e+00,-7.985317774698115212e-01
3.364521844638260206e-01,4.269963774010254731e+00,-8.211148059611316219e-01
3.290718183918243112e-01,4.260948024135418066e+00,-8.436271875371019746e-01
3.216995895436490782e-01,4.251800828613653493e+00,-8.660680902724696706e-01
3.143355225504658734e-01,4.242522696864988951e+00,-8.884366891192148064e-01
3.069796387086020650e-01,4.233114152561224586e+00,-9.107321605142337795e-01
2.996319618842754884e-01,4.223575715535355712e+00,-9.329536825765047947e-01
2.922925152004803850e-01,4.213907922208441903e+00,-9.551004421943546374e-01
2.849613154339162291e-01,4.204111305083285899e+00,-9.771716302240516239e-01
2.776383906936621404e-01,4.194186403735710833e+00,-9.991664359207641510e-01
2.703237590857002770e-01,4.184133769027284622e+00,-1.021084052123793384e+00
2.630174480547929350e-01,4.173953945895881645e+00,-1.042923679890742195e+00
2.557194721088491551e-01,4.163647497431770539e+00,-1.064684524637274698e+00
2.484298649049468954e-01,4.153214980762876429e+00,-1.086365791029476835e+00
2.411486392164623738e-01,4.142656967206006513e+00,-1.107966691856764774e+00
2.338758208917033621e-01,4.131974027399000882e+00,-1.129486437797223575e+00
2.266114277347480443e-01,4.121166737836562177e+00,-1.150924251903437501e+00
2.193554888188369301e-01,4.110235684686178281e+00,-1.172279353842769600e+00
2.121080200376659619e-01,4.099181453365146943e+00,-1.193550973851672525e+00
2.048690466732784321e-01,4.088004634263787018e+00,-1.214738341876364203e+00
1.976385933431406283e-01,4.076705832528007889e+00,-1.235840689342819321e+00
1.904166759714726598e-01,4.065285642779228326e+00,-1.256857258117751064e+00
1.832033193757167944e-01,4.053744679816060348e+00,-1.277787291807432668e+00
1.759985477566522460e-01,4.042083554483123287e+00,-1.298630038460329983e+00
1.688023797286302974e-01,4.030302882543497667e+00,-1.319384747266831193e+00
1.616148420004213659e-01,4.018403288361260373e+00,-1.340050674679434062e+00
1.544359489369414029e-01,4.006385399942693937e+00,-1.360627083745511667e+00
1.472657277360274741e-01,3.994249849152509579e+00,-1.381113234922010102e+00
1.401041978797160914e-01,3.981997276948934683e+00,-1.401508399494240109e+00
1.329513825635506852e-01,3.969628319016339724e+00,-1.421811853452031427e+00
1.258073027554240664e-01,3.957143627712956135e+00,-1.442022869917818140e+00
1.186719834010555724e-01,3.944543852991159838e+00,-1.462140731692982643e+00
1.115454417335789844e-01,3.931829648851680847e+00,-1.482164728793724517e+00
1.044277024680165117e-01,3.919001680231184892e+00,-1.502094148831665921e+00
9.731878487381838416e-02,3.906060607730415413e+00,-1.521928289973667026e+00
9.021871638695955209e-02,3.893007108646012071e+00,-1.541666452140219690e+00
8.312750819543737735e-02,3.879841852106935995e+00,-1.561307938562370490e+00
7.604518887251793258e-02,3.866565517884233305e+00,-1.580852063174488453e+00
6.897178160519830403e-02,3.853178790845422697e+00,-1.600298136198475163e+00
6.190730278746451459e-02,3.839682363834989509e+00,-1.619645478530562732e+00
5.485177814751632241e-02,3.826076923334088775e+00,-1.638893414264753323e+00
4.780522817610402542e-02,3.812363166173990958e+00,-1.658041271859995280e+00
4.076767176434881179e-02,3.798541801956371255e+00,-1.677088384497688267e+00
3.373913127829471226e-02,3.784613527134712108e+00,-1.696034089102717912e+00
2.671962965296316092e-02,3.770579054979955824e+00,-1.714877730320579108e+00
1.970919055347521501e-02,3.756439103124340040e+00,-1.733618657319059508e+00
1.270783000927665565e-02,3.742194387088740193e+00,-1.752256220294748035e+00
5.715572920671382375e-03,3.727845632844796864e+00,-1.770789775032181046e+00
-1.267561939297968347e-03,3.713393563172998402e+00,-1.789218691548695395e+00
-8.241551574838102204e-03,3.698838912754796926e+00,-1.807542332390763562e+00
-1.520637541642121116e-02,3.684182416075367783e+00,-1.825760070093525700e+00
-2.216201048568247969e-02,3.669424814092216991e+00,-1.843871287177320850e+00
-2.910843678722735764e-02,3.654566851029090735e+00,-1.861875363037670761e+00
-3.604563416730797998e-02,3.639609268017558463e+00,-1.879771686572157874e+00
-4.297358242070675044e-02,3.624552824122912131e+00,-1.897559652845574263e+00
-4.989225354921243694e-02,3.609398268450147551e+00,-1.915238656176219134e+00
-5.680163572637050851e-02,3.594146365692465928e+00,-1.932808103304883174e+00
-6.370170382861113645e-02,3.578797874907232668e+00,-1.950267399994462192e+00
-7.059243484099965438e-02,3.563353569143163480e+00,-1.967615964996048294e+00
-7.747380977246083600e-02,3.547814212110613763e+00,-1.984853213941309757e+00
-8.434581083164791049e-02,3.532180584593850980e+00,-2.001978576622351458e+00
-9.120841204238357147e-02,3.516453457167642238e+00,-2.018991475180926809e+00
-9.806159411016014682e-02,3.500633618634476640e+00,-2.035891352063884607e+00
-1.049053367435278938e-01,3.484721852330329828e+00,-2.052677642786866041e+00
-1.117396187892242682e-01,3.468718946588219776e+00,-2.069349797885046804e+00
-1.185644193260610435e-01,3.452625697549752459e+00,-2.085907265410756661e+00
-1.253797155636206251e-01,3.436442899698078701e+00,-2.102349503569453937e+00
-1.321854927300043225e-01,3.420171350308315539e+00,-2.118675975838370196e+00
-1.389817222696320409e-01,3.403811857636603655e+00,-2.134886150395161497e+00
-1.457683904059086655e-01,3.387365225052942463e+00,-2.150979498079026442e+00
-1.525454718492174899e-01,3.370832261194996349e+00,-2.166955498997856999e+00
-1.593129489483052497e-01,3.354213785059651176e+00,-2.182813637657242456e+00
-1.660707971947625039e-01,3.337510608670661405e+00,-2.198553406908613894e+00
-1.728190006603308182e-01,3.320723553454528076e+00,-2.214174303032890645e+00
-1.795575366184758437e-01,3.303853444110250059e+00,-2.229675819312894713e+00
-1.862863847737399048e-01,3.286901105108023025e+00,-2.245057470765976948e+00
-1.930055225162363719e-01,3.269867367839101480e+00,-2.260318767492579539e+00
-1.997149324913515545e-01,3.252753064989122755e+00,-2.275459229757368806e+00
-2.064145929393432499e-01,3.235559030676137482e+00,-2.290478376631921886e+00
-2.131044835498426271e-01,3.218286105539171604e+00,-2.305375745852899172e+00
-2.197845825514126716e-01,3.200935130445652810e+00,-2.320150862770127276e+00
-2.264548741529271159e-01,3.183506948351190413e+00,-2.334803278213621880e+00
-2.331153312947562284e-01,3.166002411723588317e+00,-2.349332535542728806e+00
-2.397659392406711609e-01,3.148422369741567639e+00,-2.363738185776089740e+00
-2.464066760485516538e-01,3.130767672578354421e+00,-2.378019792635069241e+00
-2.530375204231484765e-01,3.113039180866028488e+00,-2.392176916643441675e+00
-2.596584552479524466e-01,3.095237747987803711e+00,-2.406209130437701571e+00
-2.662694565550902115e-01,3.077364245044766466e+00,-2.420116008535560415e+00
-2.728705039459394799e-01,3.059419525593531475e+00,-2.433897135299482262e+00
-2.794615800855889676e-01,3.041404465639895083e+00,-2.447552099595066366e+00
-2.860426634170946114e-01,3.023319931862107346e+00,-2.461080491190554387e+00
-2.926137353288207898e-01,3.005166791747162058e+00,-2.474481917327867819e+00
-2.991747749278262924e-01,2.986945928878772971e+00,-2.487755976797859425e+00
-3.057257622827240784e-01,2.968658214230263326e+00,-2.500902285046788354e+00
-3.122666758843200552e-01,2.950304529465440417e+00,-2.513920463565084251e+00
-3.187974995847538406e-01,2.931885754788953413e+00,-2.526810131690014671e+00
-3.253182096650408806e-01,2.913402779303838397e+00,-2.539570924381718608e+00
-3.318287864909881812e-01,2.894856486192451950e+00,-2.552202468114167289e+00
-3.383292136962338659e-01,2.876247761929614732e+00,-2.564704416513587049e+00
-3.448194673019048806e-01,2.857577504030715421e+00,-2.577076412309732500e+00
-3.512995286698036290e-01,2.838846603144720593e+00,-2.589318111411160306e+00
-3.577693813232095676e-01,2.820055953778575653e+00,-2.601429175442136810e+00
-3.642290029134395701e-01,2.801206454904930698e+00,-2.613409270321783051e+00
-3.706783726689707459e-01,2.782299003203125398e+00,-2.625258065404857621e+00
-3.771174731006318726e-01,2.763334505891755999e+00,-2.636975248134331817e+00
-3.835462834027897339e-01,2.744313865474931724e+00,-2.648560497614083520e+00
-3.899647830357335088e-01,2.725237982642551238e+00,-2.660013506314093057e+00
-3.963729559854903828e-01,2.706107767279616994e+00,-2.671333970940104496e+00
-4.027707813657423475e-01,2.686924132324640446e+00,-2.682521595154768512e+00
-4.091582345111592911e-01,2.667687988709440905e+00,-2.693576092513118247e+00
-4.155353045960341607e-01,2.648400246533464841e+00,-2.704497178502316412e+00
-4.219019641668212972e-01,2.629061820168463903e+00,-2.715284575128778410e+00
-4.282581997491188841e-01,2.609673625908657257e+00,-2.725938006065313335e+00
-4.346039900437848047e-01,2.590236585030599503e+00,-2.736457213878750849e+00
-4.409393154861151465e-01,2.570751613149160342e+00,-2.746841937969534797e+00
-4.472641543857974189e-01,2.551219635971529787e+00,-2.757091925310733771e+00
-4.535784929200338267e-01,2.531641573102961562e+00,-2.767206927691596707e+00
-4.598823046825731287e-01,2.512018351276995798e+00,-2.777186710657771673e+00
-4.661755748704086155e-01,2.492350890396440644e+00,-2.787031034065899249e+00
-4.724582883299479064e-01,2.472640124058604005e+00,-2.796739675602431863e+00
-4.787304183536202351e-01,2.452886978182687638e+00,-2.806312416824665146e+00
-4.849919489250533178e-01,2.433092380640693886e+00,-2.815749033121134559e+00
-4.912428618943650016e-01,2.413257262606175679e+00,-2.825049328608107757e+00
-4.974831353028264513e-01,2.393382557956504453e+00,-2.834213095410400562e+00
-5.037127565208779911e-01,2.373469199232771221e+00,-2.843240137522475397e+00
-5.099316996907081734e-01,2.353518119460887181e+00,-2.852130270824845937e+00
-5.161399495105978286e-01,2.333530256481391785e+00,-2.860883305279129818e+00
-5.223374831948537356e-01,2.313506542890497730e+00,-2.869499072171197263e+00
-5.285242893727419844e-01,2.293447922889398694e+00,-2.877977397163753892e+00
-5.347003412589745874e-01,2.273355327589491992e+00,-2.886318118194254989e+00
-5.408656240189120279e-01,2.253229699065167235e+00,-2.894521077737841619e+00
-5.470201174879409933e-01,2.233071976170196926e+00,-2.902586129433100126e+00
-5.531638042445957693e-01,2.212883102943169256e+00,-2.910513125065615103e+00
-5.592966639160532605e-01,2.192664019540355280e+00,-2.918301924875221331e+00
-5.654186804970331437e-01,2.172415667008857021e+00,-2.925952401291565863e+00
-5.715298334801398594e-01,2.152138987217613320e+00,-2.933464431548648221e+00
-5.776301036522580867e-01,2.131834929994404160e+00,-2.940837889059366272e+00
-5.837194748209932893e-01,2.111504432519601515e+00,-2.948072674126806625e+00
-5.897979238661810175e-01,2.091148445800245614e+00,-2.955168670683006038e+00
-5.958654377034766636e-01,2.070767910302135917e+00,-2.962125784313706767e+00
-6.019219927391017411e-01,2.050363773527758671e+00,-2.968943919211622262e+00
-6.079675766528404024e-01,2.029936981783428962e+00,-2.975622994682228128e+00
-6.140021642352563314e-01,2.009488480665191368e+00,-2.982162928095161814e+00
-6.200257431281747111e-01,1.989019221543280924e+00,-2.988563644147202769e+00
-6.260382904903493140e-01,1.968530145821457245e+00,-2.994825081380118270e+00
-6.320397895391888232e-01,1.948022201234938189e+00,-3.000947172316806633e+00
-6.380302241908185623e-01,1.927496341737307661e+00,-3.006929868136570150e+00
-6.440095714886787670e-01,1.906953509696567517e+00,-3.012773123505395390e+00
-6.499778192994325465e-01,1.886394653082497319e+00,-3.018476890405349167e+00
-6.559349405219389029e-01,1.865820717005254981e+00,-3.024041139988358662e+00
-6.618809292243623688e-01,1.845232659380622087e+00,-3.029465846250337879e+00
-6.678157576972182374e-01,1.824631419526973719e+00,-3.034750981043508489e+00
-6.737394113516180782e-01,1.804017948864013121e+00,-3.039896533449307547e+00
-6.796518701164575571e-01,1.783393192023043472e+00,-3.044902492229359048e+00
-6.855531195162721803e-01,1.762758097551467618e+00,-3.049768859408868327e+00
-6.914431376375553828e-01,1.742113617459168484e+00,-3.054495635743233795e+00
-6.973219073850740468e-01,1.721460691561805589e+00,-3.059082834963195996e+00
-7.031894174895757521e-01,1.700800270699959205e+00,-3.063530473254924225e+00
-7.090456399067280868e-01,1.680133301687123826e+00,-3.067838570529432651e+00
-7.148905638045727207e-01,1.659460729180353367e+00,-3.072007160799292702e+00
-7.207241665341257431e-01,1.638783500639870550e+00,-3.076036283138325000e+00
-7.265464327247120879e-01,1.618102559458478140e+00,-3.079925976677732713e+00
-7.323573494195065869e-01,1.597418847745577741e+00,-3.083676289548672234e+00
-7.381568888395563244e-01,1.576733318127206074e+00,-3.087287280713391979e+00
-7.439450401961277271e-01,1.556046905997264140e+00,-3.090759013713174852e+00
-7.497217836509912914e-01,1.535360556410586996e+00,-3.094091553690180962e+00
-7.554871026704845782e-01,1.514675211578539793e+00,-3.097284978719805792e+00
-7.612409800612857103e-01,1.493991812268732344e+00,-3.100339369571030179e+00
-7.669833961576161263e-01,1.473311300391304535e+00,-3.103254813248088606e+00
-7.727143355946184400e-01,1.452634618211604556e+00,-3.106031404998241818e+00
-7.784337816621058614e-01,1.431962699426823304e+00,-3.108669245732774034e+00
-7.841417141595649065e-01,1.411296487408879141e+00,-3.111168442399250722e+00
-7.898381157146030507e-01,1.390636915986437350e+00,-3.113529107322320577e+00
-7.955229723295113020e-01,1.369984920392363748e+00,-3.115751361317393275e+00
-8.011962622265953460e-01,1.349341437084220274e+00,-3.117835335965235988e+00
-8.068579729605955819e-01,1.328707400681114370e+00,-3.119781153842993149e+00
-8.125080835931172141e-01,1.308083742292393215e+00,-3.121588964449294235e+00
-8.181465776471724682e-01,1.287471394567656358e+00,-3.123258904016110726e+00
-8.237734382587937887e-01,1.266871289351968910e+00,-3.124791132002184391e+00
-8.293886519053198514e-01,1.246284354655888382e+00,-3.126185800269388082e+00
-8.349921947422199731e-01,1.225711515145613717e+00,-3.127443077025288343e+00
-8.405840525003764885e-01,1.205153703058886805e+00,-3.128563132553752180e+00
-8.461642104234129436e-01,1.184611838379552973e+00,-3.129546142500743144e+00
-8.517326474792251689e-01,1.164086850938587103e+00,-3.130392291493561352e+00
-8.572893514470352194e-01,1.143579655863542710e+00,-3.131101767990454920e+00
-8.628343041220849496e-01,1.123091179584473354e+00,-3.131674769881107601e+00
-8.683674833375120139e-01,1.102622338492674325e+00,-3.132111494236065052e+00
-8.738888781012177365e-01,1.082174048412887890e+00,-3.132412155683525601e+00
-8.793984713875686587e-01,1.061747230895158101e+00,-3.132576966405504315e+00
-8.848962414429741852e-01,1.041342797004182419e+00,-3.132606144640785129e+00
-8.903821756935728082e-01,1.020961655196079176e+00,-3.132499919365009600e+00
-8.958562602511683792e-01,1.000604722686518899e+00,-3.132258526046515446e+00
-9.013184708921730959e-01,9.802729038106964277e-01,-3.131882198638358261e+00
-9.067687987682178097e-01,9.599671080077740726e-01,-3.131371188925764049e+00
-9.122072188521070935e-01,9.396882419559025035e-01,-3.130725747074845078e+00
-9.176337224012628413e-01,9.194372026415490451e-01,-3.129946127637385889e+00
-9.230482875622380012e-01,8.992148983704034704e-01,-3.129032595587225352e+00
-9.284509016349629107e-01,8.790222248169925479e-01,-3.127985424573584528e+00
-9.338415443324390441e-01,8.588600795027546697e-01,-3.126804888224696821e+00
-9.392202034218704032e-01,8.387293569353634348e-01,-3.125491264381595080e+00
-9.445868584348382502e-01,8.186309495840549122e-01,-3.124044851399962575e+00
-9.499414993834754961e-01,7.985657510734280873e-01,-3.122465935152022976e+00
-9.552841000865510690e-01,7.785346467329976594e-01,-3.120754821126254797e+00
-9.606146518935730905e-01,7.585385239973715388e-01,-3.118911814720770614e+00
-9.659331388757026460e-01,7.385782641494080814e-01,-3.116937224685244701e+00
-9.712395370801782946e-01,7.186547521561398311e-01,-3.114831371792481818e+00
-9.765338382516521865e-01,6.987688679471467657e-01,-3.112594584189347646e+00
-9.818160268316021844e-01,6.789214830586050020e-01,-3.110227187912490976e+00
-9.870860801502737703e-01,6.591134770771909235e-01,-3.107729521985409527e+00
-9.923439855909489404e-01,6.393457195504964607e-01,-3.105101926376881316e+00
-9.975897275521443675e-01,6.196190757976611785e-01,-3.102344750317774569e+00
-1.002823291183483567e+00,5.999344180138884708e-01,-3.099458350267439766e+00
-1.008044655666933131e+00,5.802926074930130351e-01,-3.096443080521255276e+00
-1.013253808416447743e+00,5.606945048382661057e-01,-3.093299313452251731e+00
-1.018450739819673379e+00,5.411409674282120497e-01,-3.090027415589087223e+00
-1.023635421928919209e+00,5.216328560824232685e-01,-3.086627766777110260e+00
-1.028807848360187016e+00,5.021710191161610215e-01,-3.083100750017297997e+00
-1.033967997756604751e+00,4.827563058125320938e-01,-3.079446751662463289e+00
-1.039115856001892269e+00,4.633895665611840742e-01,-3.075666174173853573e+00
-1.044251408038560758e+00,4.440716435407059959e-01,-3.071759405695794420e+00
-1.049374637283813083e+00,4.248033771026230587e-01,-3.067726866444394407e+00
-1.054485530782241609e+00,4.055856076279596434e-01,-3.063568957294224404e+00
-1.059584067925479767e+00,3.864191704178707165e-01,-3.059286102706661570e+00
-1.064670238534775049e+00,3.673048938828046839e-01,-3.054878720189109664e+00
-1.069744027672146824e+00,3.482436133433536862e-01,-3.050347243503545247e+00
-1.074805412817240402e+00,3.292361487971935952e-01,-3.045692105963948126e+00
-1.079854385769379865e+00,3.102833247587193921e-01,-3.040913743379303646e+00
-1.084890927967217644e+00,2.913859604992762864e-01,-3.036012609148277086e+00
-1.089915022735580052e+00,2.725448762208155240e-01,-3.030989145957009523e+00
-1.094926655743762467e+00,2.537608794314606953e-01,-3.025843820505511594e+00
-1.099925814965304616e+00,2.350347821336659371e-01,-3.020577082661628943e+00
-1.104912480461708757e+00,2.163673870669133026e-01,-3.015189407576462255e+00
-1.109886641229620441e+00,1.977594986312165015e-01,-3.009681270211510995e+00
-1.114848276766729152e+00,1.792119212926349126e-01,-3.004053145623540200e+00
-1.119797378067544757e+00,1.607254464371403457e-01,-2.998305511855407612e+00
-1.124733926197236222e+00,1.423008651980855743e-01,-2.992438871055371763e+00
-1.129657908278241196e+00,1.239389680324780585e-01,-2.986453710974991349e+00
-1.134569307827683726e+00,1.056405402374789859e-01,-2.980350526061514849e+00
-1.139468105475033077e+00,8.740636077992419706e-02,-2.974129830883998515e+00
-1.144354298586950813e+00,6.923721013278003045e-02,-2.967792130523605909e+00
-1.149227861001318018e+00,5.113386058005549989e-02,-2.961337943619101409e+00
-1.154088781360184557e+00,3.309708250962642428e-02,-2.954767789331458783e+00
-1.158937045919408604e+00,1.512764426932229275e-02,-2.948082191663284224e+00
-1.163772639226819949e+00,-2.773691264911002426e-03,-2.941281687268511913e+00
-1.168595545845770411e+00,-2.060616905297141602e-02,-2.934366806861869570e+00
-1.173405750554770810e+00,-3.836903040970763429e-02,-2.927338096687999602e+00
-1.178203242716467924e+00,-5.606152672831878070e-02,-2.920196101695028190e+00
-1.182988000746634905e+00,-7.368290761825384283e-02,-2.912941370666755514e+00
-1.187760017789306621e+00,-9.123243362479926954e-02,-2.905574468324476634e+00
-1.192519273519325074e+00,-1.087093647140141006e-01,-2.898095944975219940e+00
-1.197265758939388247e+00,-1.261129647435882406e-01,-2.890506376691623913e+00
-1.201999452176386818e+00,-1.434425016437386735e-01,-2.882806330754222657e+00
-1.206720344839526726e+00,-1.606972514609012470e-01,-2.874996382670557349e+00
-1.211428422205690580e+00,-1.778764941151186052e-01,-2.867077118437241001e+00
-1.216123665204640325e+00,-1.949795033253447496e-01,-2.859049119645178827e+00
-1.220806063110755790e+00,-2.120055724395360497e-01,-2.850912980345177150e+00
-1.225475600370693252e+00,-2.289539839950088529e-01,-2.842669294782109723e+00
-1.230132265373142797e+00,-2.458240383789759287e-01,-2.834318665810052096e+00
-1.234776042471188662e+00,-2.626150334245432871e-01,-2.825861695146878905e+00
-1.239406914369890034e+00,-2.793262720224911067e-01,-2.817298995026690900e+00
-1.244024872136365145e+00,-2.959570594880179817e-01,-2.808631181849670089e+00
-1.248629901587338997e+00,-3.125067084987452337e-01,-2.799858872410996735e+00
-1.253221981604885071e+00,-3.289745379569347650e-01,-2.790982692539966781e+00
-1.257801108208582486e+00,-3.453598665758729203e-01,-2.782003271067851280e+00
-1.262367257581540336e+00,-3.616620181799019562e-01,-2.772921237333911382e+00
-1.266920421297851984e+00,-3.778803243583518379e-01,-2.763737234736050929e+00
-1.271460583939919120e+00,-3.940141185727438766e-01,-2.754451899112305036e+00
-1.275987736535693529e+00,-4.100627431605855522e-01,-2.745065884964280389e+00
-1.280501859495468908e+00,-4.260255368411173804e-01,-2.735579835299327023e+00
-1.285002939231641106e+00,-4.419018509716254872e-01,-2.725994411464361722e+00
-1.289490963470692142e+00,-4.576910370174179787e-01,-2.716310271639476692e+00
-1.293965919261435893e+00,-4.733924549186704911e-01,-2.706528078339493160e+00
-1.298427792849397910e+00,-4.890054662667381313e-01,-2.696648503535082231e+00
-1.302876569886543878e+00,-5.045294375535810394e-01,-2.686672211750901429e+00
-1.307312236564465158e+00,-5.199637422677778620e-01,-2.676599892462646402e+00
-1.311734780760113850e+00,-5.353077558703410732e-01,-2.666432216586116066e+00
-1.316144188182863495e+00,-5.505608593659216954e-01,-2.656169872959054601e+00
-1.320540444889561238e+00,-5.657224417804378458e-01,-2.645813551421683396e+00
-1.324923537304904420e+00,-5.807918926149943095e-01,-2.635363944623684507e+00
-1.329293452619040083e+00,-5.957686145413837453e-01,-2.624821751845544338e+00
-1.333650179245925882e+00,-6.106519993974415250e-01,-2.614187671413781278e+00
-1.337993701613326758e+00,-6.254414622677481050e-01,-2.603462412076094523e+00
-1.342324008596231577e+00,-6.401364103955232698e-01,-2.592646682403783043e+00
-1.346641083228456104e+00,-6.547362599233222946e-01,-2.581741195827004454e+00
-1.350944914669003794e+00,-6.692404337194349795e-01,-2.570746668046408168e+00
-1.355235490184180325e+00,-6.836483641374446751e-01,-2.559663823169338048e+00
-1.359512794886928111e+00,-6.979594729636035000e-01,-2.548493384813030449e+00
-1.363776820574071458e+00,-7.121732061150708448e-01,-2.537236078033097364e+00
-1.368027550680078530e+00,-7.262890022631905973e-01,-2.525892642438980928e+00
-1.372264970721546629e+00,-7.403063072025496405e-01,-2.514463812478482385e+00
-1.376489069876889682e+00,-7.542245787575774241e-01,-2.502950321043807325e+00
-1.380699834430687556e+00,-7.680432702308845894e-01,-2.491352919960581946e+00
-1.384897254076045581e+00,-7.817618495699470982e-01,-2.479672352975021088e+00
-1.389081311766109827e+00,-7.953797819146919412e-01,-2.467909369084845927e+00
-1.393251997674227027e+00,-8.088965431192219890e-01,-2.456064727550654858e+00
-1.397409298976895142e+00,-8.223116156439730373e-01,-2.444139179034703790e+00
-1.401553202537023646e+00,-8.356244774285332966e-01,-2.432133490248485685e+00
-1.405683694252024774e+00,-8.488346239572999163e-01,-2.420048424907593532e+00
-1.409800764771626636e+00,-8.619415490184113571e-01,-2.407884748212448134e+00
-1.413904399166897585e+00,-8.749447537141217257e-01,-2.395643232483530838e+00
-1.417994584751556930e+00,-8.878437485477826963e-01,-2.383324653197612886e+00
-1.422071312223769368e+00,-9.006380383991942074e-01,-2.370929788806250826e+00
-1.426134563971097169e+00,-9.133271470006959492e-01,-2.358459416748855730e+00
-1.430184332159846194e+00,-9.259105930181037447e-01,-2.345914325917266119e+00
-1.434220601184029720e+00,-9.383879132258827749e-01,-2.333295301461673521e+00
-1.438243361655283881e+00,-9.507586324126400257e-01,-2.320603131996541002e+00
-1.442252597785541379e+00,-9.630222965335636376e-01,-2.307838612551770918e+00
-1.446248303261812085e+00,-9.751784488350554447e-01,-2.295002540747970166e+00
-1.450230456964363368e+00,-9.872266428873495148e-01,-2.282095714814714515e+00
-1.454199054884527387e+00,-9.991664349648810006e-01,-2.269118933426530482e+00
-1.458154083759074515e+00,-1.010997387383640422e+00,-2.256073008031704852e+00
-1.462095527865690414e+00,-1.022719067885917266e+00,-2.242958744630055623e+00
-1.466023374959205317e+00,-1.034331048444937506e+00,-2.229776954859036930e+00
-1.469937620092649944e+00,-1.045832911722936132e+00,-2.216528450529086314e+00
-1.473838244079795468e+00,-1.057224244270272395e+00,-2.203214046501823287e+00
-1.477725238110842776e+00,-1.068504639803816936e+00,-2.189834569771548889e+00
-1.481598587655031718e+00,-1.079673686069939409e+00,-2.176390833133368119e+00
-1.485458282420955456e+00,-1.090730996764761818e+00,-2.162883667211574767e+00
-1.489304315125776990e+00,-1.101676174914528072e+00,-2.149313896124238177e+00
-1.493136668011072032e+00,-1.112508835083411585e+00,-2.135682349756851117e+00
-1.496955329797643897e+00,-1.123228601871975263e+00,-2.121989860837872222e+00
-1.500760292932131756e+00,-1.133835097213458099e+00,-2.108237266104165730e+00
-1.504551541184226071e+00,-1.144327958652846089e+00,-2.094425400783399560e+00
-1.508329067451285699e+00,-1.154706817134495633e+00,-2.080555101537228335e+00
-1.512092857892023190e+00,-1.164971325295189652e+00,-2.066627213784010486e+00
-1.515842900344740452e+00,-1.175121130647635681e+00,-2.052642578157509945e+00
-1.519579183536863054e+00,-1.185155883733574500e+00,-2.038602045227706494e+00
-1.523301699157651568e+00,-1.195075256709535516e+00,-2.024506462174895827e+00
-1.527010429721599394e+00,-1.204878905769030339e+00,-2.010356678327975377e+00
-1.530705370981453761e+00,-1.214566517950646407e+00,-1.996153545742777258e+00
-1.534386506563853114e+00,-1.224137764932503591e+00,-1.981897919447535461e+00
-1.538053828413389112e+00,-1.233592337377945380e+00,-1.967590661672116825e+00
-1.541707323730429291e+00,-1.242929923107638723e+00,-1.953232623744828977e+00
-1.545346980567260831e+00,-1.252150224370252252e+00,-1.938824670617747215e+00
-1.548972789808729766e+00,-1.261252944106632690e+00,-1.924367664939050426e+00
-1.552584739724858443e+00,-1.270237794814697230e+00,-1.909862470861763972e+00
-1.556182816976243055e+00,-1.279104491711807068e+00,-1.895309956321040046e+00
-1.559767015605551421e+00,-1.287852759719614326e+00,-1.880710988310420717e+00
-1.563337320833559696e+00,-1.296482322590061242e+00,-1.866066434976739741e+00
-1.566893722946149703e+00,-1.304992922890885643e+00,-1.851377169862053584e+00
-1.570436210674707400e+00,-1.313384294343399983e+00,-1.836644068728942480e+00
-1.573964774632515162e+00,-1.321656187879898914e+00,-1.821868000877284954e+00
-1.577479403205695574e+00,-1.329808361382321280e+00,-1.807049853582666898e+00
-1.580980083570178607e+00,-1.337840565593174436e+00,-1.792190492323300965e+00
-1.584466805864028993e+00,-1.345752572388026369e+00,-1.777290804943834068e+00
-1.587939562168450225e+00,-1.353544155361195322e+00,-1.762351669041963165e+00
-1.591398341678568196e+00,-1.361215088002935447e+00,-1.747373968231454855e+00
-1.594843131965869576e+00,-1.368765159621748273e+00,-1.732358587636317448e+00
-1.598273920872464560e+00,-1.376194158392437528e+00,-1.717306410108655701e+00
-1.601690702002731337e+00,-1.383501885517172569e+00,-1.702218325365557838e+00
-1.605093461704270696e+00,-1.390688137274962433e+00,-1.687095217304632300e+00
-1.608482192892474405e+00,-1.397752728000257072e+00,-1.671937975642607821e+00
-1.611856883308897759e+00,-1.404695474010839273e+00,-1.656747492964505852e+00
-1.615217519264193990e+00,-1.411516193945265174e+00,-1.641524657934773757e+00
-1.618564097791332701e+00,-1.418214721245431686e+00,-1.626270363057620738e+00
-1.621896604852358648e+00,-1.424790887711137266e+00,-1.610985503496294768e+00
-1.625215027088468212e+00,-1.431244535148241459e+00,-1.595670972771092710e+00
-1.628519359444829062e+00,-1.437575509535120588e+00,-1.580327664367591645e+00
-1.631809589154713969e+00,-1.443783665549439377e+00,-1.564956478504228699e+00
-1.635085709039191038e+00,-1.449868865200068857e+00,-1.549558305355208443e+00
-1.638347704628358104e+00,-1.455830971764342063e+00,-1.534134049147354961e+00
-1.641595570541625859e+00,-1.461669860653798558e+00,-1.518684601859349836e+00
-1.644829293325109187e+00,-1.467385410703762494e+00,-1.503210868567854686e+00
-1.648048865813584118e+00,-1.472977500411052798e+00,-1.487713746175492124e+00
-1.651254275540375849e+00,-1.478446032613448535e+00,-1.472194136833931077e+00
-1.654445514410246565e+00,-1.483790896074251187e+00,-1.456652937922123137e+00
-1.657622572974013275e+00,-1.489012000836881011e+00,-1.441091051788754962e+00
-1.660785443089792146e+00,-1.494109254496857497e+00,-1.425509385562713227e+00
-1.663934109617274171e+00,-1.499082574881223984e+00,-1.409908836310836300e+00
-1.667068566968709753e+00,-1.503931883027353367e+00,-1.394290306140081093e+00
-1.670188808343730846e+00,-1.508657114592579340e+00,-1.378654705216689536e+00
-1.673294816381766692e+00,-1.513258202372461891e+00,-1.363002931477200974e+00
-1.676386589787859593e+00,-1.517735087715921694e+00,-1.347335889621283700e+00
-1.679464114702510891e+00,-1.522087719355448066e+00,-1.331654482628721770e+00
-1.682527382102238400e+00,-1.526316057026395390e+00,-1.315959615964934937e+00
-1.685576381400052615e+00,-1.530420056376313509e+00,-1.300252193962140534e+00
-1.688611107339492712e+00,-1.534399689880131090e+00,-1.284533121864411154e+00
-1.691631549292546444e+00,-1.538254925840514042e+00,-1.268803303678721184e+00
-1.694637695508489639e+00,-1.541985750213325845e+00,-1.253063639773905225e+00
-1.697629541339688242e+00,-1.545592148799224574e+00,-1.237315040165355873e+00
-1.700607069650619918e+00,-1.549074114509705113e+00,-1.221558409769666786e+00
-1.703570280156089023e+00,-1.552431646545203270e+00,-1.205794648390511092e+00
-1.706519158991478324e+00,-1.555664753097012909e+00,-1.190024658956069903e+00
-1.709453698502475083e+00,-1.558773445721748363e+00,-1.174249352634134436e+00
-1.712373892665903563e+00,-1.561757740474824185e+00,-1.158469628012618990e+00
-1.715279726572848107e+00,-1.564617665591093942e+00,-1.142686388428693300e+00
-1.718171194108573552e+00,-1.567353251753000887e+00,-1.126900536428656396e+00
-1.721048287336959470e+00,-1.569964535282059925e+00,-1.111112976914813810e+00
-1.723910995132404755e+00,-1.572451561912994622e+00,-1.095324609179042064e+00
-1.726759314062976891e+00,-1.574814383534696605e+00,-1.079536335151742410e+00
-1.729593230774302048e+00,-1.577053054221008388e+00,-1.063749056236960255e+00
-1.732412736252811669e+00,-1.579167638316850253e+00,-1.047963677710610275e+00
-1.735217823911172408e+00,-1.581158206496657836e+00,-1.032181091025575759e+00
-1.738008485320988283e+00,-1.583024829841053860e+00,-1.016402202671831789e+00
-1.740784710729425200e+00,-1.584767597333493150e+00,-1.000627907174047593e+00
-1.743546492402356263e+00,-1.586386594526373539e+00,-9.848591000138022800e-01
-1.746293823022714742e+00,-1.587881914149815055e+00,-9.690966850605170491e-01
-1.749026691451281978e+00,-1.589253657963509925e+00,-9.533415556071427321e-01
-1.751745093084396965e+00,-1.590501934553582686e+00,-9.375946034976350152e-01
-1.754449017638670005e+00,-1.591626855911537852e+00,-9.218567253614750046e-01
-1.757138455160292212e+00,-1.592628547784355142e+00,-9.061288176948690820e-01
-1.759813397974413052e+00,-1.593507127399485634e+00,-8.904117680622661846e-01
-1.762473841379229578e+00,-1.594262735384201379e+00,-8.747064685019602104e-01
-1.765119774116431062e+00,-1.594895501050678899e+00,-8.590138130327005239e-01
-1.767751189463391270e+00,-1.595405579128210904e+00,-8.433346877041965062e-01
-1.770368076778041866e+00,-1.595793115962204967e+00,-8.276699820794062301e-01
-1.772970432583027112e+00,-1.596058270556308223e+00,-8.120205781771511200e-01
-1.775558245863991136e+00,-1.596201205117177446e+00,-7.963873704618463778e-01
-1.778131510360047685e+00,-1.596222088865705047e+00,-7.807712318377758587e-01
-1.780690215328713855e+00,-1.596121100002506399e+00,-7.651730539252861174e-01
-1.783234355000840043e+00,-1.595898419616359476e+00,-7.495937135091546022e-01
-1.785763922773186296e+00,-1.595554238105453715e+00,-7.340340936908145153e-01
-1.788278908320778848e+00,-1.595088747820905040e+00,-7.184950713132395306e-01
-1.790779307713021629e+00,-1.594502148738644598e+00,-7.029775223958218966e-01
-1.793265107950309467e+00,-1.593794649238353234e+00,-6.874823203782630676e-01
-1.795736306977763652e+00,-1.592966463884580852e+00,-6.720103464726741027e-01
-1.798192895161559557e+00,-1.592017807936375151e+00,-6.565624633632699547e-01
-1.800634863087900106e+00,-1.590948911001872190e+00,-6.411395494222990044e-01
-1.803062205855074485e+00,-1.589760003921564468e+00,-6.257424680744548828e-01
-1.805474914390416519e+00,-1.588451319597207423e+00,-6.103720897896303121e-01
-1.807872983228862029e+00,-1.587023107452123050e+00,-5.950292760413257165e-01
-1.810256401780624858e+00,-1.585475616408167143e+00,-5.797148922052273168e-01
-1.812625167799187365e+00,-1.583809096982178755e+00,-5.644297983057150470e-01
-1.814979270634587749e+00,-1.582023813990357297e+00,-5.491748544235977025e-01
-1.817318701861916574e+00,-1.580120036620440427e+00,-5.339509210882024126e-01
-1.819643456632580536e+00,-1.578098041100130189e+00,-5.187588457858164359e-01
-1.821953527256760630e+00,-1.575958100337041312e+00,-5.035994885645856955e-01
-1.824248905577128488e+00,-1.573700504088831442e+00,-4.884736992322401550e-01
-1.826529589655074393e+00,-1.571325543540250225e+00,-4.733823241245515012e-01
-1.828795566319727728e+00,-1.568833518243132996e+00,-4.583262145324444869e-01
-1.831046830854864860e+00,-1.566224728304458358e+00,-4.433062080896960633e-01
-1.833283377303852824e+00,-1.563499485711699721e+00,-4.283231521861555202e-01
-1.835505199350016881e+00,-1.560658104907158616e+00,-4.133778866108513417e-01
-1.837712287837921288e+00,-1.557700908841362475e+00,-3.984712464178995495e-01
-1.839904636875305588e+00,-1.554628220579709064e+00,-3.836040702590706730e-01
-1.842082240089505829e+00,-1.551440376492792872e+00,-3.687771858696585747e-01
-1.844245091669615588e+00,-1.548137716402721908e+00,-3.539914283546918283e-01
-1.846393184470590088e+00,-1.544720585643312605e+00,-3.392476205432887193e-01
-1.848526512735010563e+00,-1.541189327472013870e+00,-3.245465943071633719e-01
-1.850645066991983168e+00,-1.537544305859809057e+00,-3.098891654596307998e-01
-1.852748842449655653e+00,-1.533785881545590035e+00,-2.952761567842971946e-01
-1.854837834545788544e+00,-1.529914418444406898e+00,-2.807083851445876799e-01
-1.856912033132353201e+00,-1.525930292988520343e+00,-2.661866674882160111e-01
-1.858971438195491599e+00,-1.521833886368470834e+00,-2.517118082359772746e-01
-1.861016036605471102e+00,-1.517625580108801664e+00,-2.372846230739534823e-01
-1.863045828009768146e+00,-1.513305768123718753e+00,-2.229059172858758597e-01
-1.865060800805094177e+00,-1.508874841555779778e+00,-2.085764907943910562e-01
-1.867060949603987829e+00,-1.504333203568656963e+00,-1.942971465159541444e-01
-1.869046271933542780e+00,-1.499681265453545631e+00,-1.800686820401680432e-01
-1.871016759957154330e+00,-1.494919437194429435e+00,-1.658918888581777384e-01
-1.872972408859116422e+00,-1.490048138948540046e+00,-1.517675596452164877e-01
-1.874913207250850977e+00,-1.485067791013335192e+00,-1.376964858148946869e-01
-1.876839154326809922e+00,-1.479978827175304934e+00,-1.236794435456340380e-01
-1.878750243227500061e+00,-1.474781685359688232e+00,-1.097172254493430504e-01
-1.880646471177244372e+00,-1.469476799454873195e+00,-9.581060359669488213e-02
-1.882527829583122703e+00,-1.464064618455806599e+00,-8.196035475006827054e-02
-1.884394306912734907e+00,-1.458545594368863663e+00,-6.816725027978227935e-02
-1.886245907459388915e+00,-1.452920181537897371e+00,-5.443206099040460294e-02
-1.888082618299533388e+00,-1.447188842541185183e+00,-4.075555419305687543e-02
-1.889904437375919732e+00,-1.441352047824433269e+00,-2.713848686518543704e-02
-1.891711360504288342e+00,-1.435410270885779882e+00,-1.358161807130643141e-02
-1.893503379104126028e+00,-1.429363986222743854e+00,-8.570859905780962450e-05
-1.895280488480064474e+00,-1.423213679551861066e+00,1.334849358762910283e-02
-1.897042684209195418e+00,-1.416959840735154463e+00,2.672024126502220431e-02
-1.898789958845331860e+00,-1.410602960319722765e+00,4.002878599313007546e-02
-1.900522309376233787e+00,-1.404143541879561585e+00,5.327339056534850792e-02
-1.902239728421195597e+00,-1.397582087029369147e+00,6.645331561500478212e-02
-1.903942211709980015e+00,-1.390919106428987417e+00,7.956782650098369325e-02
-1.905629756495024196e+00,-1.384155113055366648e+00,9.261619758791632406e-02
-1.907302352482950658e+00,-1.377290629483937989e+00,1.055976943487672015e-01
-1.908959999032284305e+00,-1.370326179084269347e+00,1.185116033773710442e-01
-1.910602688785239645e+00,-1.363262291374525592e+00,1.313572014754577633e-01
-1.912230420558552746e+00,-1.356099504270144918e+00,1.441337722936575916e-01
-1.913843180528589150e+00,-1.348838354047067423e+00,1.568406066526403242e-01
-1.915440971937241832e+00,-1.341479386550922692e+00,1.694769972491989851e-01
-1.917023789832500213e+00,-1.334023152756069752e+00,1.820422445698798297e-01
-1.918591624400495244e+00,-1.326470209587012450e+00,1.945356425450263937e-01
-1.920144476015376966e+00,-1.318821112916848115e+00,2.069564976356423336e-01
-1.921682334568884043e+00,-1.311076429057873360e+00,2.193041260571001738e-01
-1.923205200812668769e+00,-1.303236725704481236e+00,2.315778300233619913e-01
-1.924713065990606653e+00,-1.295302580128035341e+00,2.437769335811354743e-01
-1.926205925549172138e+00,-1.287274571058333317e+00,2.559007598844879605e-01
-1.927683779343037251e+00,-1.279153276474157774e+00,2.679486290169512674e-01
-1.929146621888837343e+00,-1.270939294789860341e+00,2.799198711498298020e-01
-1.930594442682626033e+00,-1.262633209358223318e+00,2.918138235996353136e-01
-1.932027243303397812e+00,-1.254235625292407175e+00,3.036298205934788164e-01
-1.933445019517439745e+00,-1.245747142618323533e+00,3.153672098837576043e-01
-1.934847759196765438e+00,-1.237168367461863205e+00,3.270253347769237484e-01
-1.936235468702410811e+00,-1.228499910940053841e+00,3.386035445362957086e-01
-1.937608136900710099e+00,-1.219742392732707348e+00,3.501012013615956153e-01
-1.938965764614282827e+00,-1.210896429098412996e+00,3.615176607276102683e-01
-1.940308341388070401e+00,-1.201962643309924639e+00,3.728522887123388863e-01
-1.941635868993365044e+00,-1.192941674135154617e+00,3.841044516986619195e-01
-1.942948339920614664e+00,-1.183834148472395764e+00,3.952735276806836340e-01
-1.944245753460780879e+00,-1.174640705194297974e+00,4.063588920632534296e-01
-1.945528101792024955e+00,-1.165361988683071059e+00,4.173599258403789536e-01
-1.946795380783824969e+00,-1.155998646096142668e+00,4.282760239295084759e-01
-1.948047590433194420e+00,-1.146551325877441796e+00,4.391065714537879527e-01
-1.949284725256659190e+00,-1.137020687071510494e+00,4.498509693758742101e-01
-1.950506779011003333e+00,-1.127407387233795522e+00,4.605086152107002451e-01
-1.951713749904003592e+00,-1.117712093015702735e+00,4.710789195285271513e-01
-1.952905638049672099e+00,-1.107935469140179485e+00,4.815612897430341932e-01
-1.954082434497598664e+00,-1.098078189715850694e+00,4.919551436308096659e-01
-1.955244137017367656e+00,-1.088140930272949669e+00,5.022599014149508045e-01
-1.956390743725611614e+00,-1.078124370779111274e+00,5.124749887581141472e-01
-1.957522246944079392e+00,-1.068029196408369241e+00,5.225998368008453188e-01
-1.958638649023379807e+00,-1.057856095337367908e+00,5.326338772765343288e-01
-1.959739941531587482e+00,-1.047605757864192855e+00,5.425765598464479256e-01
-1.960826125976763645e+00,-1.037278885553792218e+00,5.524273172491863670e-01
-1.961897194076632767e+00,-1.026876171671029514e+00,5.621856094786985558e-01
-1.962953144634328462e+00,-1.016398324373356532e+00,5.718508867731783019e-01
-1.963993975351465027e+00,-1.005846050581048479e+00,5.814226152325602248e-01
-1.965019683664389616e+00,-9.952200614340875884e-01,5.909002503962154096e-01
-1.966030262404816042e+00,-9.845210735696395821e-01,6.002832726517070006e-01
-1.967025714500411748e+00,-9.737498038170094850e-01,6.095711514295832911e-01
-1.968006032539138861e+00,-9.629069752533456761e-01,6.187633718554910178e-01
-1.968971211913246755e+00,-9.519933111758741573e-01,6.278594159793098317e-01
-1.969921255537610216e+00,-9.410095472493367197e-01,6.368587783162158455e-01
-1.970856156930180125e+00,-9.299564149958936543e-01,6.457609558049526299e-01
-1.971775911660217373e+00,-9.188346505895448324e-01,6.545654444412699613e-01
-1.972680522422251892e+00,-9.076449904927176293e-01,6.632717558771880073e-01
-1.973569980586008299e+00,-8.963881819022190278e-01,6.718794018282819858e-01
-1.974444282759378000e+00,-8.850649757642310433e-01,6.803879004711546052e-01
-1.975303435723676504e+00,-8.736761162124595526e-01,6.887967720544905248e-01
-1.976147427042985294e+00,-8.622223610439315733e-01,6.971055494617393045e-01
-1.976976258886277149e+00,-8.507044654464003264e-01,7.053137606589731101e-01
-1.977789927196473618e+00,-8.391231896091791986e-01,7.134209528800564692e-01
-1.978588427027685670e+00,-8.274793001613275356e-01,7.214266611880626456e-01
-1.979371761578740507e+00,-8.157735592569479444e-01,7.293304428535494210e-01
-1.980139927059311633e+00,-8.040067434248661105e-01,7.371318507115867114e-01
-1.980892916606418197e+00,-7.921796181581611807e-01,7.448304475187340623e-01
-1.981630731052764993e+00,-7.802929642052287562e-01,7.524257970611452073e-01
-1.982353369744865867e+00,-7.683475597375415411e-01,7.599174716359239357e-01
-1.983060828734874326e+00,-7.563441877617931297e-01,7.673050504599470134e-01
-1.983753103206253643e+00,-7.442836300253845572e-01,7.745881181414289163e-01
-1.984430197453743938e+00,-7.321666769526403717e-01,7.817662575025602356e-01
-1.985092105079471869e+00,-7.199941230347897125e-01,7.888390723252820536e-01
-1.985738820492605639e+00,-7.077667552842158427e-01,7.958061587000619941e-01
-1.986370350333199086e+00,-6.954853735709514151e-01,8.026671202049456832e-01
-1.986986687230125614e+00,-6.831507770475984120e-01,8.094215691323481954e-01
-1.987587828825708502e+00,-6.707637667642103452e-01,8.160691264743479278e-01
-1.988173777071981174e+00,-6.583251497212270209e-01,8.226094076077303807e-01
-1.988744524837612326e+00,-6.458357296325683006e-01,8.290420499317218139e-01
-1.989300078525266358e+00,-6.332963154598133526e-01,8.353666852435255308e-01
-1.989840426993795264e+00,-6.207077259597630903e-01,8.415829505667141719e-01
-1.990365573614155004e+00,-6.080707717230741105e-01,8.476904946358303494e-01
-1.990875517395695127e+00,-5.953862703251057154e-01,8.536889686517193931e-01
-1.991370255941137479e+00,-5.826550397153522631e-01,8.595780325090652818e-01
-1.991849789486951128e+00,-5.698779064877614875e-01,8.653573457017581516e-01
-1.992314108108629300e+00,-5.570556919569694676e-01,8.710265819233944384e-01
-1.992763221421862463e+00,-5.441892226306066505e-01,8.765854130411763201e-01
-1.993197122412966094e+00,-5.312793295822139106e-01,8.820335234808425184e-01
-1.993615809439879705e+00,-5.183268434105701150e-01,8.873705982614821242e-01
-1.994019283724462577e+00,-5.053325981174265902e-01,8.925963335287602218e-01
-1.994407543105174652e+00,-4.922974279204468395e-01,8.977104225687242423e-01
-1.994780583612841829e+00,-4.792221719783820721e-01,9.027125757890883673e-01
-1.995138409195744034e+00,-4.661076667592903289e-01,9.076025028024974350e-01
-1.995481017288893266e+00,-4.529547605334432459e-01,9.123799189162933310e-01
-1.995808404226896426e+00,-4.397642886558758568e-01,9.170445476135896667e-01
-1.996120570888944901e+00,-4.265371067399829630e-01,9.215961203847812255e-01
-1.996417513171714342e+00,-4.132740550230304954e-01,9.260343659162231233e-01
-1.996699238262256593e+00,-3.999759841241831704e-01,9.303590365038758581e-01
-1.996965734434950290e+00,-3.866437480771298674e-01,9.345698673153196578e-01
-1.997217010161344231e+00,-3.732781955180473066e-01,9.386666195495834142e-01
-1.997453061847010103e+00,-3.598801846561747175e-01,9.426490492051640135e-01
-1.997673883702637987e+00,-3.464505718325035510e-01,9.465169206744040720e-01
-1.997879479809695713e+00,-3.329902127872491624e-01,9.502700087663261685e-01
-1.998069851008615228e+00,-3.194999686670434436e-01,9.539080899658984869e-01
-1.998244995519683043e+00,-3.059807023422848604e-01,9.574309478251558092e-01
-1.998404909890825865e+00,-2.924332715662129045e-01,9.608383697554413461e-01
-1.998549599554579892e+00,-2.788585452371673545e-01,9.641301526229204555e-01
-1.998679055976471997e+00,-2.652573891654383953e-01,9.673061021214726107e-01
-1.998793282118964010e+00,-2.516306664516277380e-01,9.703660232515656237e-01
-1.998892283441530360e+00,-2.379792502831329093e-01,9.733097326255056858e-01
-1.998976052224334055e+00,-2.243040068466279624e-01,9.761370462789369373e-01
-1.999044587001083784e+00,-2.106058062047846680e-01,9.788478002490907937e-01
-1.999097896424636644e+00,-1.968855188122500544e-01,9.814418179473446413e-01
-1.999135971674964818e+00,-1.831440236521867382e-01,9.839189434020947367e-01
-1.999158819112307528e+00,-1.693821934583897848e-01,9.862790219145334270e-01
-1.999166435017306620e+00,-1.556009002176371725e-01,9.885219035571590762e-01
-1.999158818690607520e+00,-1.418010214260350954e-01,9.906474495369396172e-01
-1.999135973313204140e+00,-1.279834393762119549e-01,9.926555231561808856e-01
-1.999097894923142826e+00,-1.141490280158713316e-01,9.945459925761791498e-01
-1.999044589642046121e+00,-1.002986640951902125e-01,9.963187349741814414e-01
-1.998976049871897365e+00,-8.643323360314622561e-02,9.979736334346719362e-01
-1.998892282795972752e+00,-7.255361300874839381e-02,9.995105771849176479e-01
-1.998793282842094454e+00,-5.866068747791840232e-02,1.000929465802758545e+00
-1.998679056451518887e+00,-4.475533604748449523e-02,1.002230196455144995e+00
-1.998549597191112248e+00,-3.083844622954598491e-02,1.003412678394136170e+00
-1.998404913730948085e+00,-1.691089614932125493e-02,1.004476825451168676e+00
-1.998244996413036656e+00,-2.973574543872286279e-03,1.005422559723853970e+00
-1.998069852525710566e+00,1.097263463862820955e-02,1.006249808239257915e+00
-1.997879483310762483e+00,2.492684555075331057e-02,1.006958503273753136e+00
-1.997673883515526327e+00,3.888817846913887599e-02,1.007548583654707786e+00
-1.997453059736359782e+00,5.285573628229715132e-02,1.008019998289153341e+00
-1.997217010831691120e+00,6.682864149453573988e-02,1.008372695181015244e+00
-1.996965734907019785e+00,8.080600061882581286e-02,1.008606634836913152e+00
-1.996699236989102566e+00,9.478692941936449345e-02,1.008721784456108050e+00
-1.996417515587693536e+00,1.087705431910376830e-01,1.008718108238219724e+00
-1.996120571337762550e+00,1.227559501475928017e-01,1.008595592420011844e+00
-1.995808403671490927e+00,1.367422603488683552e-01,1.008354215285862443e+00
-1.995481015637871280e+00,1.507285928136131159e-01,1.007993966815571074e+00
-1.995138409694474424e+00,1.647140562054757451e-01,1.007514847492759769e+00
-1.994780585681271479e+00,1.786977582307634205e-01,1.006916854925226312e+00
-1.994407543374117520e+00,1.926788158426191444e-01,1.006200001927132881e+00
-1.994019283327008507e+00,2.066563412694618629e-01,1.005364301073652600e+00
-1.993615810210386030e+00,2.206294442295841651e-01,1.004409776511024033e+00
-1.993197122315638614e+00,2.345972350802104089e-01,1.003336454814488965e+00
-1.992763220790886747e+00,2.485588331303243970e-01,1.002144370587559230e+00
-1.992314107661633305e+00,2.625133456031769064e-01,1.000833565277063464e+00
-1.991849786997520244e+00,2.764598883661870676e-01,9.994040835896610409e-01
-1.991370255362699293e+00,2.903975713248972967e-01,9.978559792094103820e-01
-1.990875520585520642e+00,3.043255077138976583e-01,9.961893161608339486e-01
-1.990365575861389846e+00,3.182428185118859609e-01,9.944041523742038757e-01
-1.989840428234041836e+00,3.321486130055073538e-01,9.925005675073333977e-01
-1.989300078893254442e+00,3.460420058562718726e-01,9.904786346767214811e-01
-1.988744527645576188e+00,3.599221128177921836e-01,9.883384416272978923e-01
-1.988173775503280005e+00,3.737880529185056422e-01,9.860800814647429080e-01
-1.987587828432342052e+00,3.876389414444136872e-01,9.837036451741928422e-01
-1.986986686013384906e+00,4.014738947423066029e-01,9.812092410559472011e-01
-1.986370349988897832e+00,4.152920329870475324e-01,9.785969752136033373e-01
-1.985738821526561448e+00,4.290924767221969693e-01,9.758669706767966190e-01
-1.985092101514943863e+00,4.428743412284832925e-01,9.730193449496179481e-01
-1.984430195743376091e+00,4.566367487017518600e-01,9.700542255817121706e-01
-1.983753103981264809e+00,4.703788226662484195e-01,9.669717512668143389e-01
-1.983060828398415021e+00,4.840996836151957861e-01,9.637720599975497793e-01
-1.982353367617549100e+00,4.977984606515957755e-01,9.604553002666244010e-01
-1.981630731641641940e+00,5.114742676979738834e-01,9.570216249668600517e-01
-1.980892916639687140e+00,5.251262389519297802e-01,9.534711969880801385e-01
-1.980139923573644323e+00,5.387534985391985165e-01,9.498041805272092741e-01
-1.979371761993814482e+00,5.523551759634085512e-01,9.460207474670988548e-01
-1.978588429605809829e+00,5.659304003095603219e-01,9.421210792910991172e-01
-1.977789925896564549e+00,5.794782983593613768e-01,9.381053551246408828e-01
-1.976976258043886547e+00,5.929980040399814856e-01,9.339737700396031350e-01
-1.976147427279680624e+00,6.064886512284183295e-01,9.297265208448339813e-01
-1.975303436635021059e+00,6.199493736787231590e-01,9.253638092187911335e-01
-1.974444284449010656e+00,6.333793075540121720e-01,9.208858475889079021e-01
-1.973569977023933442e+00,6.467775872683673155e-01,9.162928484740819890e-01
-1.972680520914087854e+00,6.601433579433680920e-01,9.115850352712180360e-01
-1.971775912065679259e+00,6.734757525080207197e-01,9.067626337053031893e-01
-1.970856156143395710e+00,6.867739174856486439e-01,9.018258812432502491e-01
-1.969921256395677833e+00,7.000369966883491779e-01,8.967750173133380853e-01
-1.968971210946629968e+00,7.132641316312674507e-01,8.916102852679737012e-01
-1.968006030862275546e+00,7.264544736112165113e-01,8.863319374357060410e-01
-1.967025711661734455e+00,7.396071683836721311e-01,8.809402372078624088e-01
-1.966030262178060317e+00,7.527213682161411068e-01,8.754354441308727086e-01
-1.965019683413956608e+00,7.657962216484598406e-01,8.698178316817574141e-01
-1.963993976105520511e+00,7.788308912396691985e-01,8.640876724610266901e-01
-1.962953147348869720e+00,7.918245250121030976e-01,8.582452531788830052e-01
-1.961897192509359567e+00,8.047762860992512257e-01,8.522908619212775649e-01
-1.960826124337910814e+00,8.176853312972185428e-01,8.462247874091280986e-01
-1.959739942326360396e+00,8.305508213117440697e-01,8.400473370192522715e-01
-1.958638649857902259e+00,8.433719280173543886e-01,8.337588176568432319e-01
-1.957522247232903911e+00,8.561478127157893248e-01,8.273595343653995515e-01
-1.956390743632576035e+00,8.688776448600179503e-01,8.208498131416874788e-01
-1.955244136361802942e+00,8.815605937163242256e-01,8.142299764419221875e-01
-1.954082433573866684e+00,8.941958343922394858e-01,8.075003483080216427e-01
-1.952905638770682017e+00,9.067825425162651110e-01,8.006612730122513177e-01
-1.951713750618291110e+00,9.193198945498710639e-01,7.937130917885362180e-01
-1.950506777739414721e+00,9.318070716902489004e-01,7.866561451130376081e-01
-1.949284725476973845e+00,9.442432573756635028e-01,7.794907940841406813e-01
-1.948047590188630940e+00,9.566276356782204005e-01,7.722173952123385643e-01
-1.946795381047220719e+00,9.689593943892551575e-01,7.648363150433852287e-01
-1.945528099701765212e+00,9.812377204955452514e-01,7.573479205807724934e-01
-1.944245752081470435e+00,9.934618122790118688e-01,7.497525970954485031e-01
-1.942948339535724100e+00,1.005630861478986171e+00,7.420507156978737306e-01
-1.941635870034694955e+00,1.017744067166641786e+00,7.342426758506970241e-01
-1.940308341985565566e+00,1.029800630992564692e+00,7.263288645975428670e-01
-1.938965765287115284e+00,1.041799754294338021e+00,7.183096841381348963e-01
-1.937608138765636312e+00,1.053740646857469265e+00,7.101855395278215966e-01
-1.936235467886739947e+00,1.065622513434329122e+00,7.019568415060845057e-01
-1.934847760035758091e+00,1.077444568605768316e+00,6.936240081763417331e-01
-1.933445015482348150e+00,1.089206030945837345e+00,6.851874594886374625e-01
-1.932027241547197738e+00,1.100906108748714196e+00,6.766476277527643246e-01
-1.930594443205499999e+00,1.112544030872212319e+00,6.680049403202871217e-01
-1.929146621263470696e+00,1.124119017839791734e+00,6.592598411570644856e-01
-1.927683781879481861e+00,1.135630300238462009e+00,6.504127726612018989e-01
-1.926205926052297235e+00,1.147077102057198594e+00,6.414641852114757459e-01
-1.924713066668717776e+00,1.158458661152029778e+00,6.324145358491459756e-01
-1.923205200031361528e+00,1.169774213429334075e+00,6.232642842810637296e-01
-1.921682335654078200e+00,1.181022996889719678e+00,6.140138980876961305e-01
-1.920144476049351789e+00,1.192204254488537840e+00,6.046638478642095693e-01
-1.918591624973262633e+00,1.203317234476298125e+00,5.952146090155677749e-01
-1.917023789316634863e+00,1.214361184899655388e+00,5.856666685722448085e-01
-1.915440974025245824e+00,1.225335357605089381e+00,5.760205154136129879e-01
-1.913843183254471780e+00,1.236239011166268664e+00,5.662766390258119342e-01
-1.912230418136733778e+00,1.247071403187460126e+00,5.564355393248590076e-01
-1.910602690354724409e+00,1.257831796251123624e+00,5.464977218310554941e-01
-1.908959998643311673e+00,1.268519459113914838e+00,5.364636940656453135e-01
-1.907302351351660707e+00,1.279133662446834352e+00,5.263339698041228365e-01
-1.905629754925236119e+00,1.289673681111233927e+00,5.161090735315284617e-01
-1.903942210749623110e+00,1.300138786240319311e+00,5.057895254374116245e-01
-1.902239728548738240e+00,1.310528263993449904e+00,4.953758564970701661e-01
-1.900522308281647144e+00,1.320841400289575862e+00,4.848686044444944221e-01
-1.898789958649536036e+00,1.331077477845782786e+00,4.742683087610317649e-01
-1.897042682858763207e+00,1.341235796703004413e+00,4.635755117358837940e-01
-1.895280487027317440e+00,1.351315651442909882e+00,4.527907687314395857e-01
-1.893503378376268920e+00,1.361316335180740689e+00,4.419146314334245762e-01
-1.891711359994383335e+00,1.371237159857292331e+00,4.309476625822855067e-01
-1.889904438478854143e+00,1.381077426664281349e+00,4.198904274540261050e-01
-1.888082617525160600e+00,1.390836456427727352e+00,4.087434936168089505e-01
-1.886245906413980267e+00,1.400513556205104759e+00,3.975074440874415971e-01
-1.884394307045313743e+00,1.410108046193151887e+00,3.861828501257509871e-01
-1.882527827570749102e+00,1.419619254573830203e+00,3.747702992301679692e-01
-1.880646471067694669e+00,1.429046507361704910e+00,3.632703881949215785e-01
-1.878750243385592711e+00,1.438389138785867383e+00,3.516837061412824150e-01
-1.876839154925411091e+00,1.447646480251501888e+00,3.400108501599590216e-01
-1.874913206604524651e+00,1.456817873666530039e+00,3.282524311424063201e-01
-1.872972405978025723e+00,1.465902666720241720e+00,3.164090540493464943e-01
-1.871016759993922474e+00,1.474900202814663164e+00,3.044813314247835079e-01
-1.869046272399506270e+00,1.483809842294427250e+00,2.924698888691178444e-01
-1.867060949415739524e+00,1.492630934581844260e+00,2.803753423012294022e-01
-1.865060799132881364e+00,1.501362848344490963e+00,2.681983189574783655e-01
-1.863045827213548833e+00,1.510004944566444740e+00,2.559394564124542470e-01
-1.861016038111095616e+00,1.518556597167220357e+00,2.435993927691895156e-01
-1.858971438136065357e+00,1.527017178479329607e+00,2.311787616568463100e-01
-1.856912034324454508e+00,1.535386068997705022e+00,2.186782144802168482e-01
-1.854837833976323624e+00,1.543662655928523808e+00,2.060983985905382176e-01
-1.852748840812035835e+00,1.551846324607510708e+00,1.934399724083967764e-01
-1.850645066246301873e+00,1.559936467602216492e+00,1.807035944068925426e-01
-1.848526511477320611e+00,1.567932483654923548e+00,1.678899246109461230e-01
-1.846393185794932501e+00,1.575833775751032784e+00,1.549996324840621775e-01
-1.844245089903406409e+00,1.583639749068044056e+00,1.420333919734181882e-01
-1.842082239239995145e+00,1.591349814276114882e+00,1.289918800346852579e-01
-1.839904637090554518e+00,1.598963391883789997e+00,1.158757727819793165e-01
-1.837712286210861690e+00,1.606479902380205216e+00,1.026857607609726747e-01
-1.835505198402602067e+00,1.613898768362857172e+00,8.942252796848906837e-02
-1.833283378617566628e+00,1.621219425245037815e+00,7.608677029256033508e-02
-1.831046830942327786e+00,1.628441303644772464e+00,6.267918396700024319e-02
-1.828795567234993147e+00,1.635563845678584372e+00,4.920047045762480226e-02
-1.826529590326086305e+00,1.642586497790585742e+00,3.565133639377740526e-02
-1.824248907673610143e+00,1.649508711914393633e+00,2.203248747831516516e-02
-1.821953527947208329e+00,1.656329940415598889e+00,8.344642501049335040e-03
-1.819643454786626924e+00,1.663049642419118124e+00,-5.411485721390075013e-03
-1.817318700756976213e+00,1.669667286792135830e+00,-1.923517370397944889e-02
-1.814979268624261399e+00,1.676182339261552245e+00,-3.312569926108804852e-02
-1.812625167550361294e+00,1.682594278783993369e+00,-4.708232784392313991e-02
-1.810256403496270927e+00,1.688902585916048471e+00,-6.110433337290727823e-02
-1.807872985403936372e+00,1.695106743915195668e+00,-7.519097689673225060e-02
-1.805474913893894140e+00,1.701206246373043740e+00,-8.934151563135887819e-02
-1.803062206771689713e+00,1.707200585261268833e+00,-1.035552110376972978e-01
-1.800634863582869283e+00,1.713089265392565785e+00,-1.178313123626369002e-01
-1.798192896111071137e+00,1.718871789197581768e+00,-1.321690680764816828e-01
-1.795736309177911494e+00,1.724547670959816870e+00,-1.465677263962871513e-01
-1.793265109896938991e+00,1.730116427459756911e+00,-1.610265254528025214e-01
-1.790779307872772730e+00,1.735577576996874871e+00,-1.755447076132213013e-01
-1.788278910912416197e+00,1.740930651623685765e+00,-1.901215031855141013e-01
-1.785763924315297846e+00,1.746175181463749615e+00,-2.047561519344892611e-01
-1.783234355022888407e+00,1.751310707915172404e+00,-2.194478706868515372e-01
-1.780690214349057499e+00,1.756336768579677132e+00,-2.341958910268127358e-01
-1.778131509592673742e+00,1.761252917792105244e+00,-2.489994336629243465e-01
-1.775558244806660246e+00,1.766058706837788650e+00,-2.638577148119009008e-01
-1.772970432096428350e+00,1.770753695027659891e+00,-2.787699510067369046e-01
-1.770368078011996582e+00,1.775337449859629047e+00,-2.937353509523606965e-01
-1.767751188557514341e+00,1.779809543132031768e+00,-3.087531301531524219e-01
-1.765119773748511811e+00,1.784169547501405884e+00,-3.238224885937461828e-01
-1.762473841628879878e+00,1.788417041087453141e+00,-3.389426247266552061e-01
-1.759813399694982072e+00,1.792551624047547421e+00,-3.541127467850876953e-01
-1.757138453273002554e+00,1.796572879659434241e+00,-3.693320453654489466e-01
-1.754449017292592172e+00,1.800480407540240302e+00,-3.845997152255871132e-01
-1.751745093108801221e+00,1.804273812687870349e+00,-3.999149458612489272e-01
-1.749026692853165477e+00,1.807952707402083359e+00,-4.152769260211655045e-01
-1.746293822788787864e+00,1.811516701769523063e+00,-4.306848388923958382e-01
-1.743546490536444837e+00,1.814965424234379565e+00,-4.461378664359023638e-01
-1.740784711732669576e+00,1.818298496554681565e+00,-4.616351888631992084e-01
-1.738008485006800719e+00,1.821515552743597333e+00,-4.771759777267314262e-01
-1.735217823829485084e+00,1.824616230303673703e+00,-4.927594133207137128e-01
-1.732412734548309130e+00,1.827600177478202692e+00,-5.083846620769399971e-01
-1.729593230730350761e+00,1.830467039199837664e+00,-5.240508967127889273e-01
-1.726759311727104951e+00,1.833216473786701606e+00,-5.397572746492494966e-01
-1.723910995496709786e+00,1.835848143886021910e+00,-5.555029676751834788e-01
-1.721048284339682155e+00,1.838361711871860260e+00,-5.712871300529791529e-01
-1.718171192290746330e+00,1.840756858227436510e+00,-5.871089240491724759e-01
-1.715279722710105537e+00,1.843033257855747120e+00,-6.029675032174912630e-01
-1.712373890094845086e+00,1.845190596431273589e+00,-6.188620221331778692e-01
-1.709453698235075647e+00,1.847228566168841901e+00,-6.347916323055196042e-01
-1.706519160126081402e+00,1.849146862845691075e+00,-6.507554778057029754e-01
-1.703570280660267278e+00,1.850945191622416663e+00,-6.667527133093592573e-01
-1.700607069987903230e+00,1.852623257182961947e+00,-6.827824750422935018e-01
-1.697629538761344481e+00,1.854180778137241026e+00,-6.988439105940903451e-01
-1.694637696719864861e+00,1.855617473722293465e+00,-7.149361577216323260e-01
-1.691631550055529010e+00,1.856933070470819125e+00,-7.310583519053072132e-01
-1.688611106374240167e+00,1.858127302346088916e+00,-7.472096324072230455e-01
-1.685576383697543257e+00,1.859199911676048922e+00,-7.633891326200658023e-01
-1.682527382736619170e+00,1.860150632093640510e+00,-7.795959850576821282e-01
-1.679464113947555903e+00,1.860979228262220397e+00,-7.958293178064611562e-01
-1.676386589769729651e+00,1.861685449680160032e+00,-8.120882600019275754e-01
-1.673294817575449178e+00,1.862269060625035610e+00,-8.283719348277535088e-01
-1.670188806963319728e+00,1.862729832156078791e+00,-8.446794727862912966e-01
-1.667068566234618521e+00,1.863067538621695274e+00,-8.610099897175921280e-01
-1.663934107312091015e+00,1.863281958614760869e+00,-8.773626112991842474e-01
-1.660785440561356907e+00,1.863372883819817583e+00,-8.937364551134062696e-01
-1.657622572517088111e+00,1.863340108757540081e+00,-9.101306407563412026e-01
-1.654445514595145994e+00,1.863183431700324855e+00,-9.265442798526456469e-01
-1.651254275529958626e+00,1.862902658378538634e+00,-9.429764921618564166e-01
-1.648048863512563411e+00,1.862497600032058109e+00,-9.594263897472337099e-01
-1.644829292663953613e+00,1.861968076546731465e+00,-9.758930822843449038e-01
-1.641595568338020561e+00,1.861313913166369849e+00,-9.923756773758797278e-01
-1.638347706497668366e+00,1.860534943442651468e+00,-1.008873289101418713e+00
-1.635085707509874586e+00,1.859631000203080031e+00,-1.025385020122942636e+00
-1.631809589949556605e+00,1.858601930246797762e+00,-1.041909982537370105e+00
-1.628519358851963972e+00,1.857447578172435554e+00,-1.058447279926564066e+00
-1.625215026254372530e+00,1.856167806802375919e+00,-1.074996009304560740e+00
-1.621896603144142857e+00,1.854762473418450464e+00,-1.091555282311066133e+00
-1.618564097844826133e+00,1.853231449550609478e+00,-1.108124193520325429e+00
-1.615217520366439174e+00,1.851574610369293827e+00,-1.124701847195813897e+00
-1.611856882139735658e+00,1.849791830915937574e+00,-1.141287343076677896e+00
-1.608482192412192813e+00,1.847883004988382316e+00,-1.157879778169954355e+00
-1.605093461098137997e+00,1.845848025719483143e+00,-1.174478247943129938e+00
-1.601690702492421181e+00,1.843686789256437253e+00,-1.191081851849230988e+00
-1.598273922465453634e+00,1.841399207623939382e+00,-1.207689685314313088e+00
-1.594843129630099110e+00,1.838985188541586879e+00,-1.224300844318991555e+00
-1.591398341890280399e+00,1.836444652066401284e+00,-1.240914418236322980e+00
-1.587939563996224601e+00,1.833777521644502917e+00,-1.257529510140635409e+00
-1.584466808423842465e+00,1.830983735265532708e+00,-1.274145202733307336e+00
-1.580980082587384761e+00,1.828063225232816613e+00,-1.290760593754039842e+00
-1.577479401999737352e+00,1.825015937444038450e+00,-1.307374770076435544e+00
-1.573964774587229609e+00,1.821841821436695819e+00,-1.323986830712935214e+00
-1.570436212919664287e+00,1.818540840073668230e+00,-1.340595857625472842e+00
-1.566893723337136501e+00,1.815112948086738731e+00,-1.357200950391130645e+00
-1.563337321842580119e+00,1.811558121952316691e+00,-1.373801188815088503e+00
-1.559767017020843527e+00,1.807876332953444187e+00,-1.390395665843386919e+00
-1.556182818998657513e+00,1.804067567044816967e+00,-1.406983474319569050e+00
-1.552584739464114572e+00,1.800131811769901446e+00,-1.423563699551799511e+00
-1.548972791053463194e+00,1.796069062872418964e+00,-1.440135428055784761e+00
-1.545346979819390842e+00,1.791879321637507516e+00,-1.456697755403453032e+00
-1.541707323156466858e+00,1.787562595147231592e+00,-1.473249762619420977e+00
-1.538053827587094524e+00,1.783118899330470963e+00,-1.489790539083723830e+00
-1.534386507555822732e+00,1.778548256301814234e+00,-1.506319176531629722e+00
-1.530705370028865309e+00,1.773850687350328359e+00,-1.522834758456824478e+00
-1.527010429686539661e+00,1.769026232054727421e+00,-1.539336375589276606e+00
-1.523301696865725363e+00,1.764074926810283550e+00,-1.555823114206011715e+00
-1.519579185792857112e+00,1.758996822100387325e+00,-1.572294066178710148e+00
-1.515842898509855319e+00,1.753791964604967557e+00,-1.588748317507365337e+00
-1.512092858216775193e+00,1.748460418522791437e+00,-1.605184957269067292e+00
-1.508329067087611497e+00,1.743002245506710457e+00,-1.621603073136487883e+00
-1.504551540857017367e+00,1.737417520226160583e+00,-1.638001755464766562e+00
-1.500760293408299972e+00,1.731706321462221698e+00,-1.654380091624104043e+00
-1.496955329231459908e+00,1.725868728179678069e+00,-1.670737176106175115e+00
-1.493136665942817798e+00,1.719904837072892212e+00,-1.687072095787738757e+00
-1.489304315254298405e+00,1.713814743558241815e+00,-1.703383943703565384e+00
-1.485458283529216050e+00,1.707598549979330915e+00,-1.719671807583276868e+00
-1.481598587731107752e+00,1.701256367324647467e+00,-1.735934784930060149e+00
-1.477725236934782416e+00,1.694788312976472922e+00,-1.752171963179134817e+00
-1.473838242146489286e+00,1.688194508763881663e+00,-1.768382434590064278e+00
-1.469937618037162608e+00,1.681475082938734156e+00,-1.784565299784550030e+00
-1.466023377036003827e+00,1.674630174002426974e+00,-1.800719648503823045e+00
-1.462095527187763366e+00,1.667659918524678986e+00,-1.816844575419326091e+00
-1.458154082587391320e+00,1.660564471063368019e+00,-1.832939180118818845e+00
-1.454199056490016018e+00,1.653343979354186200e+00,-1.849002556048128243e+00
-1.450230458315383109e+00,1.645998609364639931e+00,-1.865033804141140283e+00
-1.446248301975901152e+00,1.638528523790758307e+00,-1.881032020903229851e+00
-1.442252599907169586e+00,1.630933902417584624e+00,-1.896996312772630366e+00
-1.438243362510597700e+00,1.623214918095498671e+00,-1.912925771226203331e+00
-1.434220601216431357e+00,1.615371757731868030e+00,-1.928819505720961391e+00
-1.430184332505077593e+00,1.607404618869617607e+00,-1.944676614893733557e+00
-1.426134563480003781e+00,1.599313693435836958e+00,-1.960496205126510461e+00
-1.422071312960628386e+00,1.591099189750247334e+00,-1.976277381724153459e+00
-1.417994586362143261e+00,1.582761317928188749e+00,-1.992019251777511046e+00
-1.413904400342694379e+00,1.574300298137599974e+00,-2.007720925138437806e+00
-1.409800766101788172e+00,1.565716352347507057e+00,-2.023381510210521039e+00
-1.405683695894810903e+00,1.557009707245325947e+00,-2.039000116545826469e+00
-1.401553202035644707e+00,1.548180604504434177e+00,-2.054575854965349890e+00
-1.397409299851102960e+00,1.539229279990288912e+00,-2.070107845515763323e+00
-1.393251998345297560e+00,1.530155986525818967e+00,-2.085595200274806604e+00
-1.389081311347601932e+00,1.520960978043522926e+00,-2.101037034313800955e+00
-1.384897253836728348e+00,1.511644515462261307e+00,-2.116432466008947522e+00
-1.380699833873556770e+00,1.502206867116808509e+00,-2.131780620561830375e+00
-1.376489070959956207e+00,1.492648302157573381e+00,-2.147080618462378521e+00
-1.372264971284991253e+00,1.482969105575874913e+00,-2.162331578673460708e+00
-1.368027549091569650e+00,1.473169555654211260e+00,-2.177532629668117004e+00
-1.363776821804821626e+00,1.463249953665317848e+00,-2.192682900897491738e+00
-1.359512797653048999e+00,1.453210590725652951e+00,-2.207781519860900765e+00
-1.355235491171506323e+00,1.443051769702705656e+00,-2.222827612606419923e+00
-1.350944914092834015e+00,1.432773806874645173e+00,-2.237820320369752203e+00
-1.346641083766693336e+00,1.422377007444212138e+00,-2.252758772966814149e+00
-1.342324006559251215e+00,1.411861706966901719e+00,-2.267642109124256233e+00
-1.337993702936180584e+00,1.401228225479777212e+00,-2.282469466709554862e+00
-1.333650179739612529e+00,1.390476897185697780e+00,-2.297239992801880071e+00
-1.329293453338591391e+00,1.379608067964705809e+00,-2.311952822520758399e+00
-1.324923539334735834e+00,1.368622076916454766e+00,-2.326607104311501750e+00
-1.320540444117670242e+00,1.357519282967357910e+00,-2.341201986937368140e+00
-1.316144187353019968e+00,1.346300040309020618e+00,-2.355736619758292072e+00
-1.311734780205407569e+00,1.334964714481950754e+00,-2.370210157468545020e+00
-1.307312237813361921e+00,1.323513676360657199e+00,-2.384621750295503162e+00
-1.302876569199225454e+00,1.311947300379017634e+00,-2.398970564205281431e+00
-1.298427794755234288e+00,1.300265968809930284e+00,-2.413255745484589987e+00
-1.293965919116967012e+00,1.288470068728958307e+00,-2.427476470175692569e+00
-1.289490964352604907e+00,1.276559998006620456e+00,-2.441631890789595971e+00
-1.285002937908393372e+00,1.264536154436988635e+00,-2.455721184504175092e+00
-1.280501860440455442e+00,1.252398938163260533e+00,-2.469743516968515351e+00
-1.275987735341139961e+00,1.240148769775822002e+00,-2.483698055120375336e+00
-1.271460587488319582e+00,1.227786060311282235e+00,-2.497583987159200714e+00
-1.266920421329607693e+00,1.215311235472343654e+00,-2.511400481058630785e+00
-1.262367256172597818e+00,1.202724722055255935e+00,-2.525146720116554278e+00
-1.257801106329435203e+00,1.190026958258723289e+00,-2.538821887414895784e+00
-1.253221982404010282e+00,1.177218380818772614e+00,-2.552425169237388047e+00
-1.248629898570976282e+00,1.164299436214555117e+00,-2.565955758479757431e+00
-1.244024872566876994e+00,1.151270575033578991e+00,-2.579412842298591357e+00
-1.239406915371294993e+00,1.138132256735785219e+00,-2.592795618999230278e+00
-1.234776041335486463e+00,1.124884945232429878e+00,-2.606103287791704304e+00
-1.230132267635618559e+00,1.111529107975003816e+00,-2.619335045787926752e+00
-1.225475600462672787e+00,1.098065217144719385e+00,-2.632490101218631473e+00
-1.220806061256243913e+00,1.084493758280609343e+00,-2.645567659208963196e+00
-1.216123663961700352e+00,1.070815211906348097e+00,-2.658566934830399742e+00
-1.211428418093804416e+00,1.057030069149627494e+00,-2.671487135518601619e+00
-1.206720345449824761e+00,1.043138827281783865e+00,-2.684327479474019285e+00
-1.201999453064219514e+00,1.029141992184750443e+00,-2.697087192326395044e+00
-1.197265757570664446e+00,1.015040065598046493e+00,-2.709765492153054289e+00
-1.192519274150194875e+00,1.000833565524019475e+00,-2.722361610058617654e+00
-1.187760019509533027e+00,9.865230067519996648e-01,-2.734874774787646512e+00
-1.182988002737251243e+00,9.721089146082155796e-01,-2.747304219794253211e+00
-1.178203243049492421e+00,9.575918189097224476e-01,-2.759649184270283051e+00
-1.173405749022702338e+00,9.429722532685005376e-01,-2.771908906996012778e+00
-1.168595546119678641e+00,9.282507602343854636e-01,-2.784082633899591208e+00
-1.163772639426319033e+00,9.134278817187130306e-01,-2.796169613272327048e+00
-1.158937046554062045e+00,8.985041709017965728e-01,-2.808169095461744202e+00
-1.154088780304783901e+00,8.834801824401673498e-01,-2.820080338749065607e+00
-1.149227861758542746e+00,8.683564770097496055e-01,-2.831902596238988323e+00
-1.144354296714824804e+00,8.531336240195809273e-01,-2.843635137247880529e+00
-1.139468108590840023e+00,8.378121904993867108e-01,-2.855277224183912832e+00
-1.134569304519103650e+00,8.223927558570534035e-01,-2.866828127605876464e+00
-1.129657909736520471e+00,8.068759040046383779e-01,-2.878287123564223116e+00
-1.124733925708677029e+00,7.912622174324834834e-01,-2.889653489837167744e+00
-1.119797378914980213e+00,7.755522937699124153e-01,-2.900926507953471845e+00
-1.114848277420530165e+00,7.597467240731147209e-01,-2.912105464379031172e+00
-1.109886639875513614e+00,7.438461149707419340e-01,-2.923189647937692648e+00
-1.104912480261828645e+00,7.278510736281909033e-01,-2.934178353171672526e+00
-1.099925817041172538e+00,7.117622100991334300e-01,-2.945070877809714549e+00
-1.094926657591393404e+00,6.955801419539007213e-01,-2.955866521910250455e+00
-1.089915020908556187e+00,6.793054930356196008e-01,-2.966564595104844937e+00
-1.084890927097768465e+00,6.629388911880471635e-01,-2.977164404156140698e+00
-1.079854385672178063e+00,6.464809654176463249e-01,-2.987665267528536006e+00
-1.074805414170985518e+00,6.299323547483351993e-01,-2.998066503106681324e+00
-1.069744026498123946e+00,6.132936973336764463e-01,-3.008367433838538219e+00
-1.064670239816107200e+00,5.965656453412532256e-01,-3.018567385407237236e+00
-1.059584070300594316e+00,5.797488465148916692e-01,-3.028665692247602959e+00
-1.054485532333006903e+00,5.628439543727171701e-01,-3.038661680723639513e+00
-1.049374635389220822e+00,5.458516334949428117e-01,-3.048554705101538698e+00
-1.044251408063114228e+00,5.287725462924414144e-01,-3.058344101968751616e+00
-1.039115854391960525e+00,5.116073677448172985e-01,-3.068029222430006975e+00
-1.033967996188511540e+00,4.943567664350191349e-01,-3.077609420426970388e+00
-1.028807845928802367e+00,4.770214258179167888e-01,-3.087084053809553197e+00
-1.023635419692902948e+00,4.596020235922999575e-01,-3.096452484632878477e+00
-1.018450738007272705e+00,4.420992573003294512e-01,-3.105714082117377650e+00
-1.013253810031446767e+00,4.245138108409279853e-01,-3.114868215876925639e+00
-1.008044657162207924e+00,4.068463855690135356e-01,-3.123914265871495566e+00
-1.002823288886572017e+00,3.890976823367143234e-01,-3.132851607473256639e+00
-9.975897292771291891e-01,3.712684070448625806e-01,-3.141679635527351522e+00
-9.923439859945848429e-01,3.533592700361038452e-01,-3.150397729324231122e+00
-9.870860781340010659e-01,3.353709862075009984e-01,-3.159005295449538675e+00
-9.818160250596357219e-01,3.173042730141705792e-01,-3.167501730724091136e+00
-9.765338392208755547e-01,2.991598540712906984e-01,-3.175886434964919847e+00
-9.712395381569163266e-01,2.809384598257227972e-01,-3.184158824507075547e+00
-9.659331361008474115e-01,2.626408174611502555e-01,-3.192318309316010794e+00
-9.606146530227159808e-01,2.442676695797532105e-01,-3.200364316450488467e+00
-9.552840982015043947e-01,2.258197459739157142e-01,-3.208296261541160987e+00
-9.499414986820855500e-01,2.072977973655196482e-01,-3.216113579772976294e+00
-9.445868587232076896e-01,1.887025666631695076e-01,-3.223815704211253408e+00
-9.392202015475313859e-01,1.700348142949429653e-01,-3.231402076412480895e+00
-9.338415447775314515e-01,1.512952909489378439e-01,-3.238872138813313040e+00
-9.284509011148239788e-01,1.324847562352178820e-01,-3.246225342918726664e+00
-9.230482879621145775e-01,1.136039770504272822e-01,-3.253461142055474653e+00
-9.176337216431433852e-01,9.465371848179053582e-02,-3.260578995382994005e+00
-9.122072196377219999e-01,7.563475467973217181e-02,-3.267578374833407295e+00
-9.067687971187079476e-01,5.654786034157188723e-02,-3.274458739995781187e+00
-9.013184722699061346e-01,3.739381122906998423e-02,-3.281219578039553220e+00
-8.958562595645405136e-01,1.817339267069109643e-02,-3.287860360970217943e+00
-8.903821795676972739e-01,-1.112605153233923614e-03,-3.294380578504577883e+00
-8.848962436542543442e-01,-2.046339775757221105e-02,-3.300779722367635394e+00
-8.793984706106103832e-01,-3.987818445391694278e-02,-3.307057289197116390e+00
-8.738888802580053738e-01,-5.935617468011014641e-02,-3.313212782003741808e+00
-8.683674827779563898e-01,-7.889656259553862183e-02,-3.319245704974034705e+00
-8.628343015369422941e-01,-9.849854140428988825e-02,-3.325155572352514799e+00
-8.572893519700668374e-01,-1.181613085637664429e-01,-3.330941906184253565e+00
-8.517326468501429382e-01,-1.378840469235367849e-01,-3.336604224149505971e+00
-8.461642123248467318e-01,-1.576659467229033773e-01,-3.342142057754380779e+00
-8.405840541199526283e-01,-1.775061886459166349e-01,-3.347554945511095781e+00
-8.349921949042721225e-01,-1.974039442021107704e-01,-3.352842423871048361e+00
-8.293886516719231050e-01,-2.173583977516478360e-01,-3.358004039651670602e+00
-8.237734392386280025e-01,-2.373687109824385577e-01,-3.363039341343659228e+00
-8.181465792018907113e-01,-2.574340623784726612e-01,-3.367947891691151607e+00
-8.125080837157239166e-01,-2.775536094912244844e-01,-3.372729247751045545e+00
-8.068579730699767527e-01,-2.977265165074040043e-01,-3.377382980367690468e+00
-8.011962637560815503e-01,-3.179519448832375805e-01,-3.381908662827973533e+00
-7.955229722382952673e-01,-3.382290464998171098e-01,-3.386305876809798221e+00
-7.898381153458385873e-01,-3.585569748076875007e-01,-3.390574202585137975e+00
-7.841417136804587074e-01,-3.789348830030949133e-01,-3.394713234784780820e+00
-7.784337810642242284e-01,-3.993619125175739137e-01,-3.398722568128543120e+00
-7.727143368519970856e-01,-4.198372136117997644e-01,-3.402601806722581390e+00
-7.669833970850591376e-01,-4.403599218336743948e-01,-3.406350559077931273e+00
-7.612409802755858435e-01,-4.609291780702007291e-01,-3.409968435977382306e+00
-7.554871048290301427e-01,-4.815441170503644286e-01,-3.413455059861368213e+00
-7.497217820351268491e-01,-5.022038701029957197e-01,-3.416810057033022208e+00
-7.439450397096596390e-01,-5.229075692101352590e-01,-3.420033055171166403e+00
-7.381568872375856571e-01,-5.436543422641387791e-01,-3.423123693087389618e+00
-7.323573461061618772e-01,-5.644433077301963531e-01,-3.426081618537794693e+00
-7.265464339217829748e-01,-5.852735976901791703e-01,-3.428906474124909565e+00
-7.207241661277431488e-01,-6.061443219813102967e-01,-3.431597920251785450e+00
-7.148905621880969896e-01,-6.270546006085575552e-01,-3.434155615244367077e+00
-7.090456406270312373e-01,-6.480035529917538284e-01,-3.436579222296149982e+00
-7.031894174665022090e-01,-6.689902841734453043e-01,-3.438868422348138942e+00
-6.973219099203127325e-01,-6.900139071477886521e-01,-3.441022891040906195e+00
-6.914431401178541270e-01,-7.110735281700059085e-01,-3.443042309780922849e+00
-6.855531192258511597e-01,-7.321682525866811675e-01,-3.444926373769070072e+00
-6.796518696119213665e-01,-7.532971824968762720e-01,-3.446674778470297351e+00
-6.737394113838895970e-01,-7.744594161606068727e-01,-3.448287226102022096e+00
-6.678157557897463903e-01,-7.956540575714705632e-01,-3.449763429305859663e+00
-6.618809298041664624e-01,-8.168801967059982072e-01,-3.451103099384397854e+00
-6.559349441389149549e-01,-8.381369299010157370e-01,-3.452305960697243048e+00
-6.499778183175268786e-01,-8.594233527503416514e-01,-3.453371738493065557e+00
-6.440095733608860451e-01,-8.807385480235806474e-01,-3.454300168568517293e+00
-6.380302221619940095e-01,-9.020816060076863874e-01,-3.455090988786031048e+00
-6.320397876029474338e-01,-9.234516173700149100e-01,-3.455743945546614349e+00
-6.260382905794977804e-01,-9.448476594070986945e-01,-3.456258790939789272e+00
-6.200257416572509950e-01,-9.662688181288155986e-01,-3.456635285322797735e+00
-6.140021647857872855e-01,-9.877141726983617032e-01,-3.456873192803079142e+00
-6.079675759810153624e-01,-1.009182802429869241e+00,-3.456972281589509421e+00
-6.019219937181548019e-01,-1.030673783034633528e+00,-3.456932329788333647e+00
-5.958654356529826668e-01,-1.052186190392480958e+00,-3.456753119226364745e+00
-5.897979229642487109e-01,-1.073719096689966346e+00,-3.456434444988622623e+00
-5.837194704354404795e-01,-1.095271576313779693e+00,-3.455976097666279223e+00
-5.776301034203545903e-01,-1.116842696984544192e+00,-3.455377878476331599e+00
-5.715298345344729247e-01,-1.138431529165905509e+00,-3.454639600776038932e+00
-5.654186816688143713e-01,-1.160037139486254532e+00,-3.453761074178506085e+00
-5.592966670252390582e-01,-1.181658596386381488e+00,-3.452742122590305218e+00
-5.531638050943450402e-01,-1.203294958657493918e+00,-3.451582574909942025e+00
-5.470201179342456532e-01,-1.224945293676682256e+00,-3.450282259409047203e+00
-5.408656256063480994e-01,-1.246608664382106157e+00,-3.448841020654546341e+00
-5.347003412454649496e-01,-1.268284128859844984e+00,-3.447258699863457121e+00
-5.285242881645499935e-01,-1.289970748226404007e+00,-3.445535157058564835e+00
-5.223374838269200238e-01,-1.311667579784285609e+00,-3.443670247552312436e+00
-5.161399475699114392e-01,-1.333373678076134716e+00,-3.441663833086583857e+00
-5.099317016009116132e-01,-1.355088103717958514e+00,-3.439515792902761770e+00
-5.037127566923860211e-01,-1.376809909171563762e+00,-3.437225996329264177e+00
-4.974831393594341122e-01,-1.398538149812799780e+00,-3.434794334625885792e+00
-4.912428615516497010e-01,-1.420271873903877768e+00,-3.432220696735431620e+00
-4.849919490227753704e-01,-1.442010141460054129e+00,-3.429504978810680171e+00
-4.787304172665927116e-01,-1.463751998277741828e+00,-3.426647088060920776e+00
-4.724582881233550524e-01,-1.485496495408009876e+00,-3.423646930149886636e+00
-4.661755756781946758e-01,-1.507242684571156621e+00,-3.420504427417113469e+00
-4.598823051039258591e-01,-1.528989613067559317e+00,-3.417219494697690596e+00
-4.535784902646487482e-01,-1.550736333050568794e+00,-3.413792067870634828e+00
-4.472641534468690394e-01,-1.572481883028061578e+00,-3.410222081848019560e+00
-4.409393134664219560e-01,-1.594225318612717768e+00,-3.406509478720175288e+00
-4.346039869786002541e-01,-1.615965680689639417e+00,-3.402654206544732496e+00
-4.282581999746263857e-01,-1.637702018901153522e+00,-3.398656220672409134e+00
-4.219019657425446823e-01,-1.659433379745117731e+00,-3.394515483957434743e+00
-4.155353024732782452e-01,-1.681158803526081602e+00,-3.390231965139458570e+00
-4.091582362022385122e-01,-1.702877337617594300e+00,-3.385805636493969040e+00
-4.027707812503054652e-01,-1.724588027418743286e+00,-3.381236480249227849e+00
-3.963729558375923556e-01,-1.746289917178189155e+00,-3.376524485235316675e+00
-3.899647832975211004e-01,-1.767982047398312329e+00,-3.371669642556336832e+00
-3.835462833417225825e-01,-1.789663459413482816e+00,-3.366671957969780582e+00
-3.771174729757379995e-01,-1.811333206998137602e+00,-3.361531432093316951e+00
-3.706783726313642724e-01,-1.832990323126955756e+00,-3.356248083486025546e+00
-3.642290038952530340e-01,-1.854633856644827494e+00,-3.350821930591848741e+00
-3.577693810172044575e-01,-1.876262849468062210e+00,-3.345253001490640088e+00
-3.512995308230877356e-01,-1.897876343720662939e+00,-3.339541324916365017e+00
-3.448194674210294797e-01,-1.919473381481145102e+00,-3.333686943182380791e+00
-3.383292126181803861e-01,-1.941053009586788169e+00,-3.327689903803857874e+00
-3.318287871212833862e-01,-1.962614269333874395e+00,-3.321550255458007861e+00
-3.253182095551040431e-01,-1.984156206221827645e+00,-3.315268061769840902e+00
-3.187975000889209376e-01,-2.005677864745892158e+00,-3.308843381179262355e+00
-3.122666748560067318e-01,-2.027178284507614059e+00,-3.302276292333856667e+00
-3.057257617781334869e-01,-2.048656512327348356e+00,-3.295566872089754629e+00
-2.991747764218877226e-01,-2.070111597259590930e+00,-3.288715201451918535e+00
-2.926137368820539986e-01,-2.091542578492253668e+00,-3.281721374809417391e+00
-2.860426641299376183e-01,-2.112948506896963341e+00,-3.274585492457640079e+00
-2.794615802236775082e-01,-2.134328424395389057e+00,-3.267307655798966870e+00
-2.728705038510951253e-01,-2.155681382114758904e+00,-3.259887975380402647e+00
-2.662694546060850320e-01,-2.177006424348981728e+00,-3.252326566721377432e+00
-2.596584539781557344e-01,-2.198302597734053787e+00,-3.244623555767652157e+00
-2.530375210989895263e-01,-2.219568958758848076e+00,-3.236779071239146877e+00
-2.464066769298177417e-01,-2.240804549470121199e+00,-3.228793252922629087e+00
-2.397659388488870835e-01,-2.262008421652056178e+00,-3.220666240207704423e+00
-2.331153331584082111e-01,-2.283179628533926753e+00,-3.212398182597284713e+00
-2.264548740143243200e-01,-2.304317220742807759e+00,-3.203989237013958657e+00
-2.197845835443339446e-01,-2.325420247771041282e+00,-3.195439567490701460e+00
-2.131044835352302880e-01,-2.346487769579575389e+00,-3.186749338306994694e+00
-2.064145933861312454e-01,-2.367518839183740287e+00,-3.177918728452150621e+00
-1.997149344572276275e-01,-2.388512509799841865e+00,-3.168947918290092147e+00
-1.930055235780135103e-01,-2.409467837505051779e+00,-3.159837095281482711e+00
-1.862863834308818023e-01,-2.430383885047279868e+00,-3.150586455557917720e+00
-1.795575345193280714e-01,-2.451259711030678190e+00,-3.141196197067221529e+00
-1.728189989413588534e-01,-2.472094369569784789e+00,-3.131666527089202567e+00
-1.660707976071200132e-01,-2.492886929030551091e+00,-3.121997658523131047e+00
-1.593129483433229077e-01,-2.513636448914041477e+00,-3.112189815073725274e+00
-1.525454723449299888e-01,-2.534341995311526929e+00,-3.102243219519719375e+00
-1.457683911293934098e-01,-2.555002632013628094e+00,-3.092158102690077293e+00
-1.389817230090807654e-01,-2.575617426875225657e+00,-3.081934711370423408e+00
-1.321854920551356616e-01,-2.596185450392887173e+00,-3.071573280456261656e+00
-1.253797172171257635e-01,-2.616705768642195284e+00,-3.061074068064093545e+00
-1.185644192976991196e-01,-2.637177455816377414e+00,-3.050437330022658156e+00
-1.117396194267643722e-01,-2.657599586452172424e+00,-3.039663328751717852e+00
-1.049053371668270257e-01,-2.677971229268740316e+00,-3.028752340293983547e+00
-9.806159394669214380e-02,-2.698291470011585425e+00,-3.017704631726413567e+00
-9.120841256995229629e-02,-2.718559379712041757e+00,-3.006520494005474387e+00
-8.434581097722554377e-02,-2.738774038950050560e+00,-2.995200213473522055e+00
-7.747381275243313270e-02,-2.758934531275930802e+00,-2.983744086124263006e+00
-7.059243462156605808e-02,-2.779039939798451542e+00,-2.972152410154583979e+00
-6.370170287073641247e-02,-2.799089351940982073e+00,-2.960425499841396579e+00
-5.680163490795116232e-02,-2.819081852458231285e+00,-2.948563664447214183e+00
-4.989225476311618529e-02,-2.839016532810016979e+00,-2.936567223953396422e+00
-4.297357934562546361e-02,-2.858892483490405922e+00,-2.924436507632143467e+00
-3.604563399220148123e-02,-2.878708796208473419e+00,-2.912171845540709292e+00
-2.910843569800978733e-02,-2.898464572355865965e+00,-2.899773576586332613e+00
-2.216200972672926345e-02,-2.918158901407302608e+00,-2.887242048815301665e+00
-1.520637240864032569e-02,-2.937790890124417853e+00,-2.874577607863739281e+00
-8.241552218014003631e-03,-2.957359635726981573e+00,-2.861780612534330803e+00
-1.267562239854493544e-03,-2.976864246604262298e+00,-2.848851430522612027e+00
5.715571658597890653e-03,-2.996303829099566052e+00,-2.835790425747024113e+00
1.270782875290624690e-02,-3.015677490039944786e+00,-2.822597974578333169e+00
1.970918844029165978e-02,-3.034984345211055423e+00,-2.809274457504973288e+00
2.671963134584355928e-02,-3.054223501488928960e+00,-2.795820263658662874e+00
3.373913114737551316e-02,-3.073394080888927515e+00,-2.782235785843513387e+00
4.076767216417605949e-02,-3.092495201493010271e+00,-2.768521421094900514e+00
4.780522592306610252e-02,-3.111525984134056788e+00,-2.754677581273948572e+00
5.485177888632321308e-02,-3.130485553092851703e+00,-2.740704669666714555e+00
6.190730297494177747e-02,-3.149373036577902685e+00,-2.726603106194466442e+00
6.897178155887841167e-02,-3.168187560762814936e+00,-2.712373314942811753e+00
7.604518983241599639e-02,-3.186928260232734456e+00,-2.698015729367216231e+00
8.312750777653463152e-02,-3.205594271460534550e+00,-2.683530773834006844e+00
9.021871370449195682e-02,-3.224184726901067055e+00,-2.668918897236854715e+00
9.731878628544887722e-02,-3.242698771868048002e+00,-2.654180543955959148e+00
1.044277028974108373e-01,-3.261135547946848234e+00,-2.639316164954295552e+00
1.115454419901077687e-01,-3.279494200458222153e+00,-2.624326220581009395e+00
1.186719831700013411e-01,-3.297773881591646195e+00,-2.609211174091797147e+00
1.258073044925551720e-01,-3.315973741828975196e+00,-2.593971493127646522e+00
1.329513828834618383e-01,-3.334092937064697892e+00,-2.578607655459653536e+00
1.401041963929698930e-01,-3.352130624363840905e+00,-2.563120145234691449e+00
1.472657263910671921e-01,-3.370085970139132137e+00,-2.547509440719460727e+00
1.544359472417384527e-01,-3.387958134730718385e+00,-2.531776043273955779e+00
1.616148408519046953e-01,-3.405746282115716728e+00,-2.515920449215653942e+00
1.688023791668075979e-01,-3.423449590566870704e+00,-2.499943161458732632e+00
1.759985472608024959e-01,-3.441067234226236060e+00,-2.483844686834436821e+00
1.832033188566613846e-01,-3.458598386753787501e+00,-2.467625543119599474e+00
1.904166769392377501e-01,-3.476042232173556012e+00,-2.451286252277191657e+00
1.976385903191034410e-01,-3.493397952633763737e+00,-2.434827340246319416e+00
2.048690469841743800e-01,-3.510664738233986615e+00,-2.418249337195952808e+00
2.121080198081513601e-01,-3.527841780771723723e+00,-2.401552779479611210e+00
2.193554868230264132e-01,-3.544928270512668345e+00,-2.384738213084996783e+00
2.266114255252155429e-01,-3.561923409801681206e+00,-2.367806185667338248e+00
2.338758181144129089e-01,-3.578826400685366949e+00,-2.350757248537331368e+00
2.411486388916562196e-01,-3.595636450023727892e+00,-2.333591962206043036e+00
2.484298631032269278e-01,-3.612352762859640354e+00,-2.316310891854149290e+00
2.557194753614742688e-01,-3.628974555485557474e+00,-2.298914606345728640e+00
2.630174486258595179e-01,-3.645501037856997417e+00,-2.281403681695624464e+00
2.703237614940428579e-01,-3.661931441760982064e+00,-2.263778698327826078e+00
2.776383893488189591e-01,-3.678264984633221157e+00,-2.246040243418009119e+00
2.849613149552299163e-01,-3.694500894785900602e+00,-2.228188903718094860e+00
2.922925135152201204e-01,-3.710638401134698228e+00,-2.210225280163195194e+00
2.996319623475172667e-01,-3.726676747681002322e+00,-2.192149970797025560e+00
3.069796384732016437e-01,-3.742615164963498220e+00,-2.173963582781762494e+00
3.143355221784310261e-01,-3.758452902536047802e+00,-2.155666731052895635e+00
3.216995903593456996e-01,-3.774189207501906118e+00,-2.137260031266914773e+00
3.290718180892375777e-01,-3.789823329235890270e+00,-2.118744102693201903e+00
3.364521845181074888e-01,-3.805354524368321556e+00,-2.100119572839247883e+00
3.438406680548425909e-01,-3.820782053887388674e+00,-2.081387079145530450e+00
3.512372435712209362e-01,-3.836105180164456563e+00,-2.062547252575778867e+00
3.586418924358338312e-01,-3.851323171997714567e+00,-2.043600742077424037e+00
3.660545887762334250e-01,-3.866435305864645677e+00,-2.024548185875301609e+00
3.734753089890037736e-01,-3.881440849801396809e+00,-2.005390242065463458e+00
3.809040357291658130e-01,-3.896339090511714343e+00,-1.986127566734654737e+00
3.883407422271619724e-01,-3.911129313600142599e+00,-1.966760822729247016e+00
3.957854057792825619e-01,-3.925810808152068621e+00,-1.947290675078141575e+00
4.032380045215601116e-01,-3.940382866374153359e+00,-1.927717795044421978e+00
4.106985169835341010e-01,-3.954844790629016504e+00,-1.908042857092444144e+00
4.181669212926965584e-01,-3.969195875059530199e+00,-1.888266547958405539e+00
4.256431917804894272e-01,-3.983435438911994808e+00,-1.868389548769913144e+00
4.331273050470694219e-01,-3.997562784207443709e+00,-1.848412551540404847e+00
4.406192395334994627e-01,-4.011577231008107702e+00,-1.828336251616053731e+00
4.481189754999719832e-01,-4.025478101332670811e+00,-1.808161350313330473e+00
4.556264849987896604e-01,-4.039264715153271013e+00,-1.787888548351327156e+00
4.631417496378926191e-01,-4.052936410262629963e+00,-1.767518555922539480e+00
4.706647448141484946e-01,-4.066492520551935108e+00,-1.747052089288703591e+00
4.781954439652220112e-01,-4.079932380195299579e+00,-1.726489860248438424e+00
4.857338318176750436e-01,-4.093255337523999060e+00,-1.705832600825029077e+00
4.932798793854891728e-01,-4.106460738066179061e+00,-1.685081028133136316e+00
5.008335654741594700e-01,-4.119547939016398708e+00,-1.664235879250288708e+00
5.083948666849994469e-01,-4.132516299075263078e+00,-1.643297890897546409e+00
5.159637612104498450e-01,-4.145365179819722634e+00,-1.622267797023910330e+00
5.235402244994704635e-01,-4.158093948831268705e+00,-1.601146346316491886e+00
5.311242320842002318e-01,-4.170701980191250158e+00,-1.579934286401208254e+00
5.387157645840843223e-01,-4.183188652958824250e+00,-1.558632370923970223e+00
5.463147949615676513e-01,-4.195553352192735730e+00,-1.537241357856278023e+00
5.539213038018118151e-01,-4.207795461710149176e+00,-1.515762005428853199e+00
5.615352692315722649e-01,-4.219914373667987384e+00,-1.494195079900905165e+00
5.691566631241218310e-01,-4.231909493959866708e+00,-1.472541357374424154e+00
5.767854622453446600e-01,-4.243780215642281028e+00,-1.450801599883899673e+00
5.844216496488209289e-01,-4.255525956325707959e+00,-1.428976593148544527e+00
5.920651943952143226e-01,-4.267146122564212440e+00,-1.407067116269474560e+00
5.997160779930738039e-01,-4.278640135598234195e+00,-1.385073956934929296e+00
6.073742750446612382e-01,-4.290007419579568548e+00,-1.362997901978799442e+00
6.150397622999889125e-01,-4.301247402759607930e+00,-1.340839749930682778e+00
6.227125183609720782e-01,-4.312359521603048584e+00,-1.318600288756884620e+00
6.303925194050856717e-01,-4.323343209393713416e+00,-1.296280329611104509e+00
6.380797416777945763e-01,-4.334197920895205058e+00,-1.273880671621474558e+00
6.457741601909904317e-01,-4.344923098211777024e+00,-1.251402125376211982e+00
6.534757514684725876e-01,-4.355518198556932674e+00,-1.228845504418351942e+00
6.611844932089518956e-01,-4.365982682415367577e+00,-1.206211621229548170e+00
6.689003614949029508e-01,-4.376316019304001159e+00,-1.183501297309511147e+00
6.766233374618489949e-01,-4.386517676764724705e+00,-1.160715359229353316e+00
6.843533898366458423e-01,-4.396587131802748516e+00,-1.137854630425579883e+00
6.920904982503899294e-01,-4.406523870981257751e+00,-1.114919944346071556e+00
6.998346412737499467e-01,-4.416327379498782513e+00,-1.091912130691584659e+00
7.075857935978794311e-01,-4.425997150790722756e+00,-1.068832032196472603e+00
7.153439285845530904e-01,-4.435532681030615265e+00,-1.045680485746918631e+00
7.231090272178840594e-01,-4.444933478112281122e+00,-1.022458339706295405e+00
7.308810666897560537e-01,-4.454199056105855092e+00,-9.991664369765407283e-01
7.386600193003050041e-01,-4.463328925777390488e+00,-9.758056300759966328e-01
7.464458611295757828e-01,-4.472322607447662968e+00,-9.523767747253558680e-01
7.542385707442272880e-01,-4.481179628483435096e+00,-9.288807278938315815e-01
7.620381252474692779e-01,-4.489899525295618865e+00,-9.053183512471044692e-01
7.698445003626795957e-01,-4.498481832166595140e+00,-8.816905055027335347e-01
7.776576681866359531e-01,-4.506926097627236949e+00,-8.579980655622928554e-01
7.854776116822391741e-01,-4.515231867087234896e+00,-8.342418916747633695e-01
7.933043009246435462e-01,-4.523398697759147602e+00,-8.104228605514410821e-01
8.011377141815577696e-01,-4.531426150198667457e+00,-7.865418506175936297e-01
8.089778294429522676e-01,-4.539313795275004004e+00,-7.625997410807481280e-01
8.168246249670263470e-01,-4.547061196553494611e+00,-7.385974125628513853e-01
8.246780673021327779e-01,-4.554667943591975465e+00,-7.145357474819790111e-01
8.325381400135876131e-01,-4.562133617062617219e+00,-6.904156347125872673e-01
8.404048201529068507e-01,-4.569457804408279422e+00,-6.662379706467391749e-01
8.482780801833941231e-01,-4.576640107312357486e+00,-6.420036435509888229e-01
8.561578970360854690e-01,-4.583680123395123651e+00,-6.177135498556241000e-01
8.640442497087297280e-01,-4.590577461567449724e+00,-5.933685872956914187e-01
8.719371071545901630e-01,-4.597331739848400822e+00,-5.689696607820018404e-01
8.798364513704483025e-01,-4.603942572518263887e+00,-5.445176722392665036e-01
8.877422554063157945e-01,-4.610409586605993759e+00,-5.200135283759603766e-01
8.956544986916977757e-01,-4.616732420277305238e+00,-4.954581392905824666e-01
9.035731522603940302e-01,-4.622910706854800544e+00,-4.708524176171074438e-01
9.114981971476108225e-01,-4.628944091903932190e+00,-4.461972733121244428e-01
9.194296030762729721e-01,-4.634832223456601952e+00,-4.214936290930725860e-01
9.273673510406919007e-01,-4.640574755498443338e+00,-3.967423985119753471e-01
9.353114143953629167e-01,-4.646171359201378692e+00,-3.719445034899647728e-01
9.432617719747645735e-01,-4.651621693837847182e+00,-3.471008697326160020e-01
9.512183950943410293e-01,-4.656925439126566424e+00,-3.222124231446208409e-01
9.591812605186809115e-01,-4.662082274946744320e+00,-2.972800909264911584e-01
9.671503492118682654e-01,-4.667091884732613494e+00,-2.723048004958820711e-01
9.751256310810614281e-01,-4.671953966577233608e+00,-2.472874882953088604e-01
9.831070828821665275e-01,-4.676668214963467740e+00,-2.222290868796814867e-01
9.910946801902946746e-01,-4.681234336498213189e+00,-1.971305328111364608e-01
9.990884021497331569e-01,-4.685652042546192497e+00,-1.719927626761040551e-01
1.007088220075581741e+00,-4.689921053709999121e+00,-1.468167197685626979e-01
1.015094111826750467e+00,-4.694041088642302739e+00,-1.216033435305847177e-01
1.023106053309051244e+00,-4.698011883142396705e+00,-9.635358133231235189e-02
1.031124017922814273e+00,-4.701833168827684872e+00,-7.106837652780928494e-02
1.039147981360144080e+00,-4.705504690618679042e+00,-4.574867602292216617e-02
1.047177921650718435e+00,-4.709026195727887831e+00,-2.039543354161515304e-02
1.055213815675888789e+00,-4.712397441076236149e+00,4.990404325836054686e-03
1.063255631893601061e+00,-4.715618185445054067e+00,3.040788268749002043e-02
1.071303352616652882e+00,-4.718688199896924118e+00,5.585604873227855566e-02
1.079356951237835593e+00,-4.721607256533452812e+00,8.133394394477638789e-02
1.087416404829481875e+00,-4.724375134380498054e+00,1.068406122714463252e-01
1.095481683786823979e+00,-4.726991626199311902e+00,1.323750957017857388e-01
1.103552767144333258e+00,-4.729456516557321244e+00,1.579364305121399581e-01
1.111629632073945162e+00,-4.731769611897352235e+00,1.835236585811816368e-01
1.119712249831443129e+00,-4.733930712221313897e+00,2.091358175258441476e-01
1.127800597395061333e+00,-4.735939634818064015e+00,2.347719373595889558e-01
1.135894652591680876e+00,-4.737796194160537766e+00,2.604310568862562847e-01
1.143994387635811627e+00,-4.739500218520071861e+00,2.861122089054760620e-01
1.152099776948852128e+00,-4.741051533806142970e+00,3.118144211388578224e-01
