ref_gyro_x (deg/s),ref_gyro_y (deg/s),ref_gyro_z (deg/s)
2.738320218785280646e-01,9.999999999999997780e-02,4.993147673772868611e-01
5.201152632801132603e-01,1.904967065229420109e-01,9.485897521301288604e-01
7.413999011763735547e-01,2.730542937119721514e-01,1.352693896834720411e+00
9.400270604430428500e-01,3.489421664876078966e-01,1.716036974135440873e+00
1.118140284689611574e+00,4.191926425218336361e-01,2.042608891053119269e+00
1.277697721395849362e+00,4.846473660890062152e-01,2.336016734378619120e+00
1.420484589791866314e+00,5.459946227667263896e-01,2.599519340839166137e+00
1.548125612006847396e+00,6.037993149196366760e-01,2.836059317478996977e+00
1.662097175791632964e+00,6.585270237924545356e-01,3.048292532270324706e+00
1.763739065495058433e+00,7.105633118063398035e-01,3.238615156169370124e+00
1.854265650894049156e+00,7.602291972818171484e-01,3.409188375586409414e+00
1.934776464121471973e+00,8.077935541011111997e-01,3.561960915672563122e+00
2.006266125856756233e+00,8.534830431403556128e-01,3.698689525033493908e+00
2.069633605190331682e+00,8.974900643503926911e-01,3.820957575089762859e+00
2.125690814783476768e+00,9.399791229698922779e-01,3.930191924887838972e+00
2.175170555430878228e+00,9.810919262795236850e-01,4.027678196538135857e+00
2.218733832939364881e+00,1.020951465090418342e+00,4.114574598885782919e+00
2.256976576195060868e+00,1.059665283983934225e+00,4.191924428385513934e+00
2.290435789063112182e+00,1.097328103888030926e+00,4.260667367055926746e+00
2.319595170872335466e+00,1.134023928023983219e+00,4.321649688234718845e+00
2.344890241094380379e+00,1.169827736072760471e+00,4.375633471910583161e+00
2.366713003757756617e+00,1.204806850366545889e+00,4.423304922836293507e+00
2.385416186395529881e+00,1.239022041014165021e+00,4.465281876530070804e+00
2.401317087109352322e+00,1.272528423315514967e+00,4.502120570700206770e+00
2.414701061794959802e+00,1.305376189959255528e+00,4.534321752601115918e+00
2.425824681832817298e+00,1.337611211804501377e+00,4.562336186345377520e+00
2.434918590691857787e+00,1.369275534096638935e+00,4.586569618240842416e+00
2.442190085991347015e+00,1.400407789417156712e+00,4.607387252769807873e+00
2.447825451665826435e+00,1.431043544241297427e+00,4.625117786849859414e+00
2.451992063016975365e+00,1.461215592452681067e+00,4.640057045481273512e+00
2.454840285639578124e+00,1.490954206361573053e+00,4.652471257761751744e+00
2.456505187494109954e+00,1.520287353548812836e+00,4.662600008503373417e+00
2.457108081776583575e+00,1.549240886094506386e+00,4.670658897288380906e+00
2.456757916713523393e+00,1.577838707356268966e+00,4.676841933719980915e+00
2.455552526988879602e+00,1.606102920361109021e+00,4.681323694834335747e+00
2.453579760190158776e+00,1.634053961008100631e+00,4.684261268114460641e+00
2.450918490441088782e+00,1.661710718597602554e+00,4.685796001261860688e+00
2.447639530264209995e+00,1.689090645668566593e+00,4.686055077815655778e+00
2.443806450684723242e+00,1.716209858707671954e+00,4.685152935841214727e+00
2.439476318641520702e+00,1.743083230968094588e+00,4.683192545222641279e+00
2.434700359907535638e+00,1.769724478382180610e+00,4.680266557568854680e+00
2.429524554933768510e+00,1.796146239355530749e+00,4.676458341366124039e+00
2.423990174314205603e+00,1.822360149077764113e+00,4.671842913766726113e+00
2.418134259917104067e+00,1.848376908867673807e+00,4.666487779281188963e+00
2.411990057136416343e+00,1.874206350979944036e+00,4.660453684628800275e+00
2.405587403180851513e+00,1.899857499230941604e+00,4.653795298087120891e+00
2.398953075832301884e+00,1.925338625747537113e+00,4.646561820856843994e+00
2.392111106665921749e+00,1.950657304101770073e+00,4.638797537214519373e+00
2.385083062326874170e+00,1.975820459062366696e+00,4.630542309555027991e+00
2.377888297099929993e+00,2.000834413169584991e+00,4.621832023820759083e+00
2.370544179684118014e+00,2.025704930320577191e+00,4.612698990269151977e+00
2.363066296792438514e+00,2.050437256537337660e+00,4.603172304038587903e+00
2.355468635933086752e+00,2.075036158077060655e+00,4.593278169529480870e+00
2.347763749491163843e+00,2.099505957034749404e+00,4.583040192217967324e+00
2.339962902015915613e+00,2.123850564579483624e+00,4.572479641159659991e+00
2.332076202425827915e+00,2.148073511958517035e+00,4.561615685116562346e+00
2.324112722670550024e+00,2.172177979396905823e+00,4.550465604947995679e+00
2.316080604232428897e+00,2.196166823014531477e+00,4.539044984643090253e+00
2.307987153710132855e+00,2.220042599876898226e+00,4.527367883135221760e+00
2.299838928600442589e+00,2.243807591290937431e+00,4.515446988825133623e+00
2.291641814280762635e+00,2.267463824452064625e+00,4.503293758547023629e+00
2.283401093092795264e+00,2.291013092543946250e+00,4.490918542538632430e+00
2.275121506336003741e+00,2.314456973387689853e+00,4.478330696820260748e+00
2.266807309897032496e+00,2.337796846732644873e+00,4.465538684247126966e+00
2.258462324167102686e+00,2.361033910276422176e+00,4.452550165372956670e+00
2.250089978832808146e+00,2.384169194497394173e+00,4.439372080148744182e+00
2.241693353065902006e+00,2.407203576378604382e+00,4.426010721378094814e+00
2.233275211583919617e+00,2.430137792097785354e+00,4.412471800758178020e+00
2.224838037005206548e+00,2.452972448754145773e+00,4.398760508252278711e+00
2.216384058878591468e+00,2.475708035198552537e+00,4.384881565465025943e+00
2.207915279728949187e+00,2.498344932029930909e+00,4.370839273624144816e+00
2.199433498425034994e+00,2.520883420816969700e+00,4.356637556711874026e+00
2.190940331144491271e+00,2.543323692600660380e+00,4.342280000234735482e+00
2.182437230182808996e+00,2.565665855729746259e+00,4.327769886071184402e+00
2.173925500827696311e+00,2.587909943077911556e+00,4.313110223792557818e+00
2.165406316497606287e+00,2.610055918688364063e+00,4.298303778812953446e+00
2.156880732322775884e+00,2.632103683888508794e+00,4.283353097687915501e+00
2.148349697328853836e+00,2.654053082914569650e+00,4.268260530849659062e+00
2.139814065366724360e+00,2.675903908083304472e+00,4.253028253037530071e+00
2.131274604917443138e+00,2.697655904545447125e+00,4.237658281656488057e+00
2.122732007887913053e+00,2.719308774653062866e+00,4.222152493272797180e+00
2.114186897501103779e+00,2.740862181970792122e+00,4.206512638435182083e+00
2.105639835373914082e+00,2.762315754958762248e+00,4.190740354990644789e+00
2.097091327866245525e+00,2.783669090353000364e+00,4.174837180047129337e+00
2.088541831776249857e+00,2.804921756267248600e+00,4.158804560719860710e+00
2.079991759449014488e+00,2.826073295038376898e+00,4.142643863784377878e+00
2.071441483359044433e+00,2.847123225835880955e+00,4.126356384346889783e+00
2.062891340220681435e+00,2.868071047054464362e+00,4.109943353631394736e+00
2.054341634675051154e+00,2.888916238507243772e+00,4.093405945972984128e+00
2.045792642597127120e+00,2.909658263435775716e+00,4.076745285097708837e+00
2.037244614061995307e+00,2.930296570351865970e+00,4.059962449761265191e+00
2.028697776005439213e+00,2.950830594724967337e+00,4.043058478811484946e+00
2.020152334610285649e+00,2.971259760527871219e+00,4.026034375732979065e+00
2.011608477446777066e+00,2.991583481652440479e+00,4.008891112726484351e+00
2.003066375392279053e+00,3.011801163206154541e+00,3.991629634370038371e+00
1.994526184353061282e+00,3.031912202699419190e+00,3.974250860904432692e+00
1.985988046808548235e+00,3.051915991132774675e+00,3.956755691181036649e+00
1.977452093196309324e+00,3.071811913992425147e+00,3.939145005306264213e+00
1.968918443154205278e+00,3.091599352161781944e+00,3.921419667013463783e+00
1.960387206634417012e+00,3.111277682756155016e+00,3.903580525789898115e+00
1.951858484902541990e+00,3.130846279887086858e+00,3.885628418783711790e+00
1.943332371433620809e+00,3.150304515362321478e+00,3.867564172513182186e+00
1.934808952715698860e+00,3.169651759326882257e+00,3.849388604398378266e+00
1.926288308970480978e+00,3.188887380850325748e+00,3.831102524133260800e+00
1.917770514799583825e+00,3.208010748464744655e+00,3.812706734914421691e+00
1.909255639764108503e+00,3.227021230657779682e+00,3.794202034541057422e+00
1.900743748904370811e+00,3.245918196324510507e+00,3.775589216399245274e+00
1.892234903205959995e+00,3.264701015181754151e+00,3.756869070342306660e+00
1.883729160017700632e+00,3.283369058148058350e+00,3.738042383477796271e+00
1.875226573426428622e+00,3.301921697692318691e+00,3.719109940870635622e+00
1.866727194593063466e+00,3.320358308153777305e+00,3.700072526170912202e+00
1.858231072053977195e+00,3.338678266035875808e+00,3.680930922173997644e+00
1.849738251991207116e+00,3.356880950276229125e+00,3.661685911319880748e+00
1.841248778474768866e+00,3.374965742494825616e+00,3.642338276137896624e+00
1.832762693679915067e+00,3.392932027222324454e+00,3.622888799642389746e+00
1.824280038081943500e+00,3.410779192110213298e+00,3.603338265684327801e+00
1.815800850630867158e+00,3.428506628124394773e+00,3.583687459263321884e+00
1.807325168908027413e+00,3.446113729723662367e+00,3.563937166804095558e+00
1.798853029266503700e+00,3.463599895024374931e+00,3.544088176401005708e+00
1.790384466957015475e+00,3.480964525952556787e+00,3.524141278033873448e+00
1.781919516240789036e+00,3.498207028384502149e+00,3.504097263758031655e+00
1.773458210490749920e+00,3.515326812276906576e+00,3.483956927871207032e+00
1.765000582282244102e+00,3.532323291787431874e+00,3.463721067059602809e+00
1.756546663474374270e+00,3.549195885386543292e+00,3.443390480525277741e+00
1.748096485282904844e+00,3.565944015961385549e+00,3.422965970096726984e+00
1.739650078345629236e+00,3.582567110912380670e+00,3.402448340324364828e+00
1.731207472780956103e+00,3.599064602243196465e+00,3.381838398562437842e+00
1.722768698240435770e+00,3.615435926644642084e+00,3.361136955038751761e+00
1.714333783955837021e+00,3.631680525573040441e+00,3.340344822913427159e+00
1.705902758781344453e+00,3.647797845323529131e+00,3.319462818327807874e+00
1.697475651231383997e+00,3.663787337098753483e+00,3.298491760444504095e+00
1.689052489514521804e+00,3.679648457073320333e+00,3.277432471479477805e+00
1.680633301563842830e+00,3.695380666454394447e+00,3.256285776726953518e+00
1.672218115064186383e+00,3.710983431538758648e+00,3.235052504577885291e+00
1.663806957476537729e+00,3.726456223766633435e+00,3.213733486532629691e+00
1.655399856059904140e+00,3.741798519772533638e+00,3.192329557208394064e+00
1.646996837890895460e+00,3.757009801433401908e+00,3.170841554341984114e+00
1.638597929881292048e+00,3.772089555914256653e+00,3.149270318788330858e+00
1.630203158793762208e+00,3.787037275711547135e+00,3.127616694515193529e+00
1.621812551255957802e+00,3.801852458694400916e+00,3.105881528594438556e+00
1.613426133773136151e+00,3.816534608143942631e+00,3.084065671190215685e+00
1.605043932739463886e+00,3.831083232790830628e+00,3.062169975544350997e+00
1.596665974448145953e+00,3.845497846851154478e+00,3.040195297959216170e+00
1.588292285100492807e+00,3.859777970060809693e+00,3.018142497778322220e+00
1.579922890814032366e+00,3.873923127708483349e+00,2.996012437364863779e+00
1.571557817629798182e+00,3.887932850667336293e+00,2.973805982078408849e+00
1.563197091518816251e+00,3.901806675425487647e+00,2.951524000249905466e+00
1.554840738387942789e+00,3.915544144115386871e+00,2.929167363155176673e+00
1.546488784085074064e+00,3.929144804542149760e+00,2.906736944987033500e+00
1.538141254403806446e+00,3.942608210210917452e+00,2.884233622826145815e+00
1.529798175087612178e+00,3.955933920353335242e+00,2.861658276610776763e+00
1.521459571833569946e+00,3.969121499953171206e+00,2.839011789105502004e+00
1.513125470295694885e+00,3.982170519771144335e+00,2.816295045868976832e+00
1.504795896087926188e+00,3.995080556369027036e+00,2.793508935220873735e+00
1.496470874786786975e+00,4.007851192133028206e+00,2.770654348208029916e+00
1.488150431933767281e+00,4.020482015296532374e+00,2.747732178569898931e+00
1.479834593037441692e+00,4.032972619962204242e+00,2.724743322703347292e+00
1.471523383575370048e+00,4.045322606123503917e+00,2.701688679626876421e+00
1.463216828995784091e+00,4.057531579685648815e+00,2.678569150944287713e+00
1.454914954719098485e+00,4.069599152486021332e+00,2.655385640807855552e+00
1.446617786139251294e+00,4.081524942314084470e+00,2.632139055881058010e+00
1.438325348624895694e+00,4.093308572930784983e+00,2.608830305300867014e+00
1.430037667520464240e+00,4.104949674087503553e+00,2.585460300639669029e+00
1.421754768147120318e+00,4.116447881544545773e+00,2.562029955866815367e+00
1.413476675803583937e+00,4.127802837089189048e+00,2.538540187309855423e+00
1.405203415766881125e+00,4.139014188553309381e+00,2.514991913615449270e+00
1.396935013293003403e+00,4.150081589830604045e+00,2.491386055710005820e+00
1.388671493617484209e+00,4.161004700893410124e+00,2.467723536760052294e+00
1.380412881955917603e+00,4.171783187809126936e+00,2.444005282132351464e+00
1.372159203504401237e+00,4.182416722756279626e+00,2.420232219353801728e+00
1.363910483439945143e+00,4.192904984040193739e+00,2.396405278071104483e+00
1.355666746920806798e+00,4.203247656108310970e+00,2.372525390010239654e+00
1.347428019086802431e+00,4.213444429565162075e+00,2.348593488935751594e+00
1.339194325059567703e+00,4.223495001186973852e+00,2.324610510609844916e+00
1.330965689942785302e+00,4.233399073935938617e+00,2.300577392751327999e+00
1.322742138822386337e+00,4.243156356974151500e+00,2.276495074994373979e+00
1.314523696766713545e+00,4.252766565677201349e+00,2.252364498847160945e+00
1.306310388826664948e+00,4.262229421647441896e+00,2.228186607650338935e+00
1.298102240035816868e+00,4.271544652726926294e+00,2.203962346535382366e+00
1.289899275410520296e+00,4.280711993010028138e+00,2.179692662382802126e+00
1.281701519949984380e+00,4.289731182855733849e+00,2.155378503780239985e+00
1.273508998636339706e+00,4.298601968899619763e+00,2.131020820980443098e+00
1.265321736434691147e+00,4.307324104065515691e+00,2.106620565859131933e+00
1.257139758293150944e+00,4.315897347576846954e+00,2.082178691872754506e+00
1.248963089142867799e+00,4.324321464967677997e+00,2.057696154016147805e+00
1.240791753898039751e+00,4.332596228093425594e+00,2.033173908780091299e+00
1.232625777455923055e+00,4.340721415141280737e+00,2.008612914108777847e+00
1.224465184696821973e+00,4.348696810640312549e+00,1.984014129357186684e+00
1.216310000484086995e+00,4.356522205471270226e+00,1.959378515248383135e+00
1.208160249664090635e+00,4.364197396876074109e+00,1.934707033830717293e+00
1.200015957066207450e+00,4.371722188467003889e+00,1.910000648434969417e+00
1.191877147502785617e+00,4.379096390235583947e+00,1.885260323631396284e+00
1.183743845769109182e+00,4.386319818561160488e+00,1.860487025186724042e+00
1.175616076643365870e+00,4.393392296219180260e+00,1.835681720021063779e+00
1.167493864886601784e+00,4.400313652389157504e+00,1.810845376164757381e+00
1.159377235242678550e+00,4.407083722662350489e+00,1.785978962715176088e+00
1.151266212438218695e+00,4.413702349049125395e+00,1.761083449793437561e+00
1.143160821182564124e+00,4.420169379986021774e+00,1.736159808501084090e+00
1.135061086167713729e+00,4.426484670342516026e+00,1.711209010876697967e+00
1.126967032068272534e+00,4.432648081427482012e+00,1.686232029852460901e+00
1.118878683541393970e+00,4.438659480995353235e+00,1.661229839210671688e+00
1.110796065226715923e+00,4.444518743251977710e+00,1.636203413540215035e+00
1.102719201746304778e+00,4.450225748860173525e+00,1.611153728192976642e+00
1.094648117704589918e+00,4.455780384944992178e+00,1.586081759240229649e+00
1.086582837688298886e+00,4.461182545098656860e+00,1.560988483428968898e+00
1.078523386266398765e+00,4.466432129385229821e+00,1.535874878138216992e+00
1.070469787990020238e+00,4.471529044344956461e+00,1.510741921335288396e+00
1.062422067392398528e+00,4.476473202998308309e+00,1.485590591532019111e+00
1.054380248988805224e+00,4.481264524849743580e+00,1.460421867740976154e+00
1.046344357276475678e+00,4.485902935891139087e+00,1.435236729431625058e+00
1.038314416734543721e+00,4.490388368604944169e+00,1.410036156486477621e+00
1.030290451823971276e+00,4.494720761967026412e+00,1.384821129157219222e+00
1.022272486987478413e+00,4.498900061449198517e+00,1.359592628020803939e+00
1.014260546649472738e+00,4.502926219021471610e+00,1.334351633935535242e+00
1.006254655215979010e+00,4.506799193153986138e+00,1.309099127997134904e+00
9.982548370745681909e-01,4.510518948818653229e+00,1.283836091494784615e+00
9.902611165942860616e-01,4.514085457490479847e+00,1.258563505867159371e+00
9.822735181255806136e-01,4.517498697148615960e+00,1.233282352658457759e+00
9.742920660002313271e-01,4.520758652277069523e+00,1.207993613474406480e+00
9.663167845312776727e-01,4.523865313865148785e+00,1.182698269938272206e+00
9.583476980129462808e-01,4.526818679407580426e+00,1.157397303646862774e+00
9.503848307205775559e-01,4.529618752904340795e+00,1.132091696126524605e+00
9.424282069105553994e-01,4.532265544860179851e+00,1.106782428789143014e+00
9.344778508202308265e-01,4.534759072283836900e+00,1.081470482888138518e+00
9.265337866678565737e-01,4.537099358686972117e+00,1.056156839474476250e+00
9.185960386525046095e-01,4.539286434082775656e+00,1.030842479352668706e+00
9.106646309540036288e-01,4.541320334984289886e+00,1.005528383036795592e+00
9.027395877328585616e-01,4.543201104402425194e+00,9.802155307065325562e-01
8.948209331301800740e-01,4.544928791843672933e+00,9.549049021631861311e-01
8.869086912676131806e-01,4.546503453307520815e+00,9.295974767857465570e-01
8.790028862472634152e-01,4.547925151283568113e+00,9.042942334869635834e-01
8.711035421516223343e-01,4.549193954748325552e+00,8.789961506694219384e-01
8.632106830434981282e-01,4.550309939161738093e+00,8.537042061816622063e-01
8.553243329659411254e-01,4.551273186463389742e+00,8.284193772743014827e-01
8.474445159421687412e-01,4.552083785068411714e+00,8.031426405561900017e-01
8.395712559754940907e-01,4.552741829863087730e+00,7.778749719505938520e-01
8.317045770492577095e-01,4.553247422200172423e+00,7.526173466514077814e-01
8.238445031267448426e-01,4.553600669893887343e+00,7.273707390793884286e-01
8.159910581511259364e-01,4.553801687214639848e+00,7.021361228384332964e-01
8.081442660453682647e-01,4.553850594883420477e+00,6.769144706718873694e-01
8.003041507121788634e-01,4.553747520065925869e+00,6.517067544188902550e-01
7.924707360339200424e-01,4.553492596366353951e+00,6.265139449707590735e-01
7.846440458725431055e-01,4.553085963820930004e+00,6.013370122274145357e-01
7.768241040695136324e-01,4.552527768891107662e+00,5.761769250538470999e-01
7.690109344457414231e-01,4.551818164456491900e+00,5.510346512366369742e-01
7.612045608015014508e-01,4.550957309807447615e+00,5.259111574405095357e-01
7.534050069163715779e-01,4.549945370637423991e+00,5.008074091649492576e-01
7.456122965491510657e-01,4.548782519034974214e+00,4.757243707008624867e-01
7.378264534377924067e-01,4.547468933475477648e+00,4.506630050872887372e-01
7.300475012993298263e-01,4.546004798812575132e+00,4.256242740681770997e-01
7.222754638298052310e-01,4.544390306269289859e+00,4.006091380492121656e-01
7.145103647041972650e-01,4.542625653428870258e+00,3.756185560547026792e-01
7.067522275763472583e-01,4.540711044225328230e+00,3.506534856845309189e-01
6.990010760788902822e-01,4.538646688933686058e+00,3.257148830711689147e-01
6.912569338231810967e-01,4.536432804159921339e+00,3.008037028367547272e-01
6.835198243992219869e-01,4.534069612830630369e+00,2.759208980502418362e-01
6.757897713755933733e-01,4.531557344182388647e+00,2.510674201846157527e-01
6.680667982993776510e-01,4.528896233750813849e+00,2.262442190741825454e-01
6.603509286960945746e-01,4.526086523359354352e+00,2.014522428719314473e-01
6.526421860696214328e-01,4.523128461107761566e+00,1.766924380069750666e-01
6.449405939021275458e-01,4.520022301360294037e+00,1.519657491420624285e-01
6.372461756539967714e-01,4.516768304733608907e+00,1.272731191311808063e-01
6.295589547637665540e-01,4.513366738084376273e+00,1.026154889772297463e-01
6.218789546480432140e-01,4.509817874496603096e+00,7.799379778978229871e-02
6.142061987014411084e-01,4.506121993268660475e+00,5.340898274293972431e-02
6.065407102965061359e-01,4.502279379900026690e+00,2.886197903325988384e-02
5.988825127836456819e-01,4.498290326077742485e+00,4.353719837790734175e-03
5.912316294910602288e-01,4.494155129662575021e+00,-2.011486372781770560e-02
5.835880837246644193e-01,4.489874094674894955e+00,-4.454284265109915292e-02
5.759518987680279922e-01,4.485447531280276401e+00,-6.892929006446076035e-02
5.683230978822922941e-01,4.480875755774794911e+00,-9.327328128678286090e-02
5.607017043061101047e-01,4.476159090570055454e+00,-1.175738938649081994e-01
5.530877412555679218e-01,4.471297864177924630e+00,-1.418302076150364799e-01
5.454812319241167939e-01,4.466292411194984879e+00,-1.660413046640140389e-01
5.378821994825058184e-01,4.461143072286707145e+00,-1.902062694905162776e-01
5.302906670787040921e-01,4.455850194171334877e+00,-2.143241889661221533e-01
5.227066578378366524e-01,4.450414129603493585e+00,-2.383941523962830045e-01
5.151301948621119786e-01,4.444835237357512625e+00,-2.624152515611720138e-01
5.075613012307500505e-01,4.439113882210474316e+00,-2.863865807564308641e-01
4.999999999999126254e-01,4.433250434924970840e+00,-3.103072368337871922e-01
4.924463142026355156e-01,4.427245272231603579e+00,-3.341763192415723172e-01
4.849002668487561452e-01,4.421098776811183129e+00,-3.579929300650990798e-01
4.773618809248435513e-01,4.414811337276665526e+00,-3.817561740669377368e-01
4.698311793941278847e-01,4.408383348154809589e+00,-4.054651587270550750e-01
4.623081851964319644e-01,4.401815209867551815e+00,-4.291189942828361747e-01
4.547929212481014449e-01,4.395107328713118378e+00,-4.527167937689742794e-01
4.472854104419344279e-01,4.388260116846857350e+00,-4.762576730572383177e-01
4.397856756471098527e-01,4.381273992261798256e+00,-4.997407508960988731e-01
4.322937397091206613e-01,4.374149378768941610e+00,-5.231651489502334718e-01
4.248096254497036872e-01,4.366886705977272243e+00,-5.465299918398892620e-01
4.173333556667674915e-01,4.359486409273510610e+00,-5.698344071801145772e-01
4.098649531343285801e-01,4.351948929801591426e+00,-5.930775256198476120e-01
4.024044406024358533e-01,4.344274714441874963e+00,-6.162584808808678760e-01
3.949518407971035483e-01,4.336464215790085674e+00,-6.393764097966051496e-01
3.875071764202432378e-01,4.328517892135994138e+00,-6.624304523508033338e-01
3.800704701495937199e-01,4.320436207441826326e+00,-6.854197517160407482e-01
3.726417446386516286e-01,4.312219631320414415e+00,-7.083434542921024368e-01
3.652210225166033220e-01,4.303868639013077591e+00,-7.312007097442032588e-01
3.578083263882559928e-01,4.295383711367248836e+00,-7.539906710410564372e-01
3.504036788339677244e-01,4.286765334813829931e+00,-7.767124944927962238e-01
3.430071024095788235e-01,4.278014001344302208e+00,-7.993653397887381384e-01
3.356186196463448179e-01,4.269130208487559308e+00,-8.219483700349896615e-01
3.282382530508626828e-01,4.260114459286495681e+00,-8.444607517918957251e-01
3.208660251050124423e-01,4.250967262274338410e+00,-8.669016551113306601e-01
3.135019582658761239e-01,4.241689131450709915e+00,-8.892702535738233882e-01
3.061460749656810254e-01,4.232280586257453514e+00,-9.115657243255220754e-01
2.987983976117213891e-01,4.222742151554189860e+00,-9.337872481149925852e-01
2.914589485862967844e-01,4.213074357593637131e+00,-9.559340093298462904e-01
2.841277502466433291e-01,4.203277739996661211e+00,-9.780051960332074579e-01
2.768048249248619141e-01,4.193352839727091386e+00,-9.999999999999984457e-01
2.694901949278525888e-01,4.183300203066282030e+00,-1.021917616753064362e+00
2.621838825372461712e-01,4.173120381587420269e+00,-1.043757245599114869e+00
2.548859100093398555e-01,4.162813932129600936e+00,-1.065518089664494461e+00
2.475962995750204121e-01,4.152381416771639522e+00,-1.087199355930772215e+00
2.403150734397078714e-01,4.141823402805654197e+00,-1.108800255270158797e+00
2.330422537832777252e-01,4.131140462710400918e+00,-1.130320002480732944e+00
2.257778627600023624e-01,4.120333174124365172e+00,-1.151757816321495431e+00
2.185219224984748798e-01,4.109402119818611254e+00,-1.173112919547229405e+00
2.112744551015479089e-01,4.098347887669398837e+00,-1.194384538943181973e+00
2.040354826462642823e-01,4.087171070630558845e+00,-1.215571905359556615e+00
1.968050271837904208e-01,4.075872266705630409e+00,-1.236674253745813967e+00
1.895831107393467219e-01,4.064452078919764233e+00,-1.257690823184782092e+00
1.823697553121424730e-01,4.052911115291393251e+00,-1.278620856926578231e+00
1.751649828753092109e-01,4.041249988803670590e+00,-1.299463602422332720e+00
1.679688153758351066e-01,4.029469317375672155e+00,-1.320218311357718388e+00
1.607812747344928295e-01,4.017569723833378070e+00,-1.340884239686281898e+00
1.536023828457782903e-01,4.005551835880410749e+00,-1.361460647662577239e+00
1.464321615778397256e-01,3.993416286068561138e+00,-1.381946799875100496e+00
1.392706327724170801e-01,3.981163711768084035e+00,-1.402341965279017444e+00
1.321178182447690641e-01,3.968794755137763808e+00,-1.422645417228694198e+00
1.249737397836068742e-01,3.956310063094760743e+00,-1.442856433510016023e+00
1.178384191510339629e-01,3.943710287284238891e+00,-1.462974296372505201e+00
1.107118780824724869e-01,3.930996084048767436e+00,-1.482998292561226839e+00
1.035941382866061855e-01,3.918168114397511115e+00,-1.502927713348488403e+00
9.648522144530068123e-02,3.905227043975190604e+00,-1.522761854565322981e+00
8.938514921355210363e-02,3.892173543030843952e+00,-1.542500016632765591e+00
8.229394321941282953e-02,3.879008286386357973e+00,-1.562141504592912788e+00
7.521162506392257974e-02,3.865731953404797139e+00,-1.581685628139762434e+00
6.813821632105353243e-02,3.852345227958515306e+00,-1.601131701649846084e+00
6.107373853763390509e-02,3.838848798397057394e+00,-1.620479044212630670e+00
5.401821323328895308e-02,3.825243357514858555e+00,-1.639726979660712347e+00
4.697166190037240646e-02,3.811529602518729742e+00,-1.658874836599778080e+00
3.993410600390204235e-02,3.797708234995140320e+00,-1.677921948438350741e+00
3.290556698149260662e-02,3.783779960877295512e+00,-1.696867653417308386e+00
2.588606624329341938e-02,3.769745490412017119e+00,-1.715711294639176820e+00
1.887562517192098444e-02,3.755605538126411957e+00,-1.734452220097194575e+00
1.187426512239429799e-02,3.741360822794353780e+00,-1.753089782704153166e+00
4.882007422070277873e-03,3.727012067402758255e+00,-1.771623340321000661e+00
-2.101126629420558677e-03,3.712559999117666987e+00,-1.790052255785220758e+00
-9.075115760241524165e-03,3.698005349250135243e+00,-1.808375896938974492e+00
-1.603993872641274604e-02,3.683348853221924735e+00,-1.826593636657009911e+00
-2.299557431187509993e-02,3.668591250531007653e+00,-1.844704852874336609e+00
-2.994200132855547383e-02,3.653733284716883301e+00,-1.862708928613661996e+00
-3.687919861643396136e-02,3.638775703325698885e+00,-1.880605252012591988e+00
-4.380714504360359862e-02,3.623719257875194000e+00,-1.898393216350588997e+00
-5.072581950633822667e-02,3.608564703819450159e+00,-1.916072220075693000e+00
-5.763520092915680459e-02,3.593312800513464911e+00,-1.933641666830998807e+00
-6.453526826488270585e-02,3.577964311177543433e+00,-1.951100965480890181e+00
-7.142600049471653501e-02,3.562520002861500945e+00,-1.968449530137028836e+00
-7.830737662829143075e-02,3.546980646408704807e+00,-1.985686780184099831e+00
-8.517937570374344014e-02,3.531347016419923435e+00,-2.002812140305310518e+00
-9.204197678777129021e-02,3.515619891217005133e+00,-2.019825040507636782e+00
-9.889515897570079483e-02,3.499800052806394390e+00,-2.036724916146825493e+00
-1.057389013915515791e-01,3.483888286842460769e+00,-2.053511207952143813e+00
-1.125731831880981554e-01,3.467885382590667032e+00,-2.070183362050874720e+00
-1.193979835469316658e-01,3.451792132890571629e+00,-2.086740829992566937e+00
-1.262132816785267453e-01,3.435609334118657099e+00,-2.103183068773021525e+00
-1.330190568223030001e-01,3.419337786151003034e+00,-2.119509540858030228e+00
-1.398152882466903446e-01,3.402978292325786303e+00,-2.135719714206852693e+00
-1.466019552491869271e-01,3.386531659405632499e+00,-2.151813062295444112e+00
-1.533790371564316968e-01,3.369998697539796417e+00,-2.167789064139410637e+00
-1.601465133242548911e-01,3.353380220226196418e+00,-2.183647204316721435e+00
-1.669043631377511994e-01,3.336677044273281822e+00,-2.199386972990146738e+00
-1.736525660113380498e-01,3.319889989761756421e+00,-2.215007865929443209e+00
-1.803911013888200299e-01,3.303019880006144771e+00,-2.230509384533266637e+00
-1.871199487434486719e-01,3.286067541516210166e+00,-2.245891035850835493e+00
-1.938390875779890110e-01,3.269033803958222517e+00,-2.261152332603312498e+00
-2.005484974247777885e-01,3.251919500116085882e+00,-2.276292793204932607e+00
-2.072481578457896212e-01,3.234725465852307913e+00,-2.291311941783860995e+00
-2.139380484326969811e-01,3.217452540068844513e+00,-2.306209308202777919e+00
-2.206181488069331731e-01,3.200101564667790388e+00,-2.320984428079200690e+00
-2.272884386197531748e-01,3.182673384511932380e+00,-2.335636842805534741e+00
-2.339488975522977243e-01,3.165168847385172235e+00,-2.350166099568851585e+00
-2.405995053156549379e-01,3.147588803952805492e+00,-2.364571751370394104e+00
-2.472402416509185685e-01,3.129934107721673797e+00,-2.378853357044814931e+00
-2.538710863292544806e-01,3.112205615000180892e+00,-2.393010481279133739e+00
-2.604920191519613515e-01,3.094404184858182028e+00,-2.407042694631424062e+00
-2.671030199505275982e-01,3.076530679086744158e+00,-2.420949573549224798e+00
-2.737040685866987677e-01,3.058585962157777782e+00,-2.434730700387672364e+00
-2.802951449525372118e-01,3.040570901183551111e+00,-2.448385663427359749e+00
-2.868762289704791524e-01,3.022486365876077219e+00,-2.461914056891913116e+00
-2.934473005934024603e-01,3.004333228506378628e+00,-2.475315480965293080e+00
-3.000083398046842764e-01,2.986112363863642649e+00,-2.488589541808811756e+00
-3.065593266182596310e-01,2.967824649214251043e+00,-2.501735851577876257e+00
-3.131002410786879464e-01,2.949470964260700878e+00,-2.514754028438440425e+00
-3.196310632612079372e-01,2.931052191100409487e+00,-2.527643696583187438e+00
-3.261517732718045570e-01,2.912569214184411948e+00,-2.540404486247416216e+00
-3.326623512472630106e-01,2.894022920275947985e+00,-2.553036033724652931e+00
-3.391627773552337022e-01,2.875414198408944966e+00,-2.565537981381975197e+00
-3.456530317942911323e-01,2.856743939846387637e+00,-2.577909977675049369e+00
-3.521330947939956824e-01,2.838013038038601277e+00,-2.590151677162885413e+00
-3.586029466149516787e-01,2.819222388581415828e+00,-2.602262740522300444e+00
-3.650625675488671784e-01,2.800372889174245206e+00,-2.614242834562100715e+00
-3.715119379186175297e-01,2.781465439578063581e+00,-2.626091632236969176e+00
-3.779510380783017154e-01,2.762500941573286184e+00,-2.637808812661069702e+00
-3.843798484133040261e-01,2.743480298917561733e+00,-2.649394061121357336e+00
-3.907983493403535125e-01,2.724404417303467607e+00,-2.660847069090603423e+00
-3.972065213075829937e-01,2.705274204316125974e+00,-2.672167534240124986e+00
-4.036043447945892870e-01,2.686090569390720884e+00,-2.683355160452227217e+00
-4.099918003124933819e-01,2.666854423769940752e+00,-2.694409657832347538e+00
-4.163688684039956178e-01,2.647566680461333810e+00,-2.705330742720920334e+00
-4.227355296434434084e-01,2.628228254194580948e+00,-2.716118137704929048e+00
-4.290917646368814786e-01,2.608840061378695729e+00,-2.726771571629184709e+00
-4.354375540221152585e-01,2.589403020059141802e+00,-2.737290779607295832e+00
-4.417728784687700583e-01,2.569918049874877042e+00,-2.747675503032349642e+00
-4.480977186783494659e-01,2.550386072015327965e+00,-2.757925489587301993e+00
-4.544120553842921351e-01,2.530808009177293538e+00,-2.768040493255059076e+00
-4.607158693520341797e-01,2.511184785521768603e+00,-2.778020274328276695e+00
-4.670091413790654067e-01,2.491517326630725560e+00,-2.787864599418854006e+00
-4.732918522949871587e-01,2.471806559463802788e+00,-2.797573241467137262e+00
-4.795639829615721550e-01,2.452053412314954439e+00,-2.807145979750814480e+00
-4.858255142728231668e-01,2.432258814769020727e+00,-2.816582599893526329e+00
-4.920764271550299718e-01,2.412423697658258259e+00,-2.825882893873168378e+00
-4.983167025668276962e-01,2.392548993018796644e+00,-2.835046660029896248e+00
-5.045463214992547130e-01,2.372635634047056463e+00,-2.844073703073838555e+00
-5.107652649758123165e-01,2.352684555056100191e+00,-2.852963834092497208e+00
-5.169735140525196782e-01,2.332696691431948466e+00,-2.861716870557861725e+00
-5.231710498179736879e-01,2.312672979589832423e+00,-2.870332636333213561e+00
-5.293578533934056862e-01,2.292614356930413599e+00,-2.878810961679632907e+00
-5.355339059327383078e-01,2.272521761795953665e+00,-2.887151683262204838e+00
-5.416991886226445452e-01,2.252396133426441516e+00,-2.895354644155926138e+00
-5.478536826826052586e-01,2.232238411915682619e+00,-2.903419693851303940e+00
-5.539973693649626885e-01,2.212049538167351947e+00,-2.911346688259662141e+00
-5.601302299549830721e-01,2.191830453851008720e+00,-2.919135489718134746e+00
-5.662522457709087131e-01,2.171582101358077388e+00,-2.926785966994368327e+00
-5.723633981640177115e-01,2.151305423757802426e+00,-2.934297995290912731e+00
-5.784636685186798077e-01,2.131001364753165372e+00,-2.941671456249312477e+00
-5.845530382524145585e-01,2.110670868636784547e+00,-2.948906237953896170e+00
-5.906314888159446275e-01,2.090314880246777474e+00,-2.956002234935262596e+00
-5.966990016932561813e-01,2.069934344922614855e+00,-2.962959348173459073e+00
-6.027555584016527357e-01,2.049530208460940806e+00,-2.969777485100865366e+00
-6.088011404918116654e-01,2.029103417071381976e+00,-2.976456559604761409e+00
-6.148357295478414919e-01,2.008654917332334477e+00,-2.982996492029605040e+00
-6.208593071873379499e-01,1.988185656146743030e+00,-2.989397209178992654e+00
-6.268718550614384988e-01,1.967696580697860131e+00,-2.995658644317326758e+00
-6.328733548548806098e-01,1.947188638404999006e+00,-3.001780737171171776e+00
-6.388637882860528361e-01,1.926662776879281669e+00,-3.007763433930312313e+00
-6.448431371070580953e-01,1.906119943879368561e+00,-3.013606687248497451e+00
-6.508113831037618535e-01,1.885561087267196845e+00,-3.019310456243895047e+00
-6.567685080958532984e-01,1.864987154963713145e+00,-3.024874706499221855e+00
-6.627144939368941889e-01,1.844399094904600522e+00,-3.030299410061596976e+00
-6.686493225143823604e-01,1.823797854996014989e+00,-3.035584545442059135e+00
-6.745729757498001300e-01,1.803184383070320917e+00,-3.040730097614804173e+00
-6.804854355986722503e-01,1.782559626841839329e+00,-3.045736058016109471e+00
-6.863866840506209765e-01,1.761924533862595066e+00,-3.050602424542948832e+00
-6.922767031294196904e-01,1.741280051478081736e+00,-3.055329201551316487e+00
-6.981554748930488552e-01,1.720627126783039751e+00,-3.059916399854230917e+00
-7.040229814337507497e-01,1.699966706577243691e+00,-3.064364036719449569e+00
-7.098792048780824260e-01,1.679299737321309438e+00,-3.068672135866866935e+00
-7.157241273869719977e-01,1.658627165092523059e+00,-3.072840727465619981e+00
-7.215577311557712648e-01,1.637949935540683022e+00,-3.076869848130881380e+00
-7.273799984143114461e-01,1.617268993843977487e+00,-3.080759540920353867e+00
-7.331909114269574701e-01,1.596585284664872484e+00,-3.084509855330458183e+00
-7.389904524926598217e-01,1.575899752106037388e+00,-3.088120847292223470e+00
-7.447786039450109419e-01,1.555213339666300154e+00,-3.091592579166864141e+00
-7.505553481522986292e-01,1.534526990196624752e+00,-3.094925119741066322e+00
-7.563206675175563332e-01,1.513841645856134122e+00,-3.098118544221964754e+00
-7.620745444786231060e-01,1.493158248068159111e+00,-3.101172934231814615e+00
-7.678169615081900101e-01,1.472477737476329374e+00,-3.104088377802369791e+00
-7.735479011138606253e-01,1.451801053900706906e+00,-3.106864969368952512e+00
-7.792673458381980112e-01,1.431129136293953552e+00,-3.109502809764223219e+00
-7.849752782587825495e-01,1.410462922697550914e+00,-3.112002006211645799e+00
-7.906716809882620156e-01,1.389803350198060672e+00,-3.114362672318663261e+00
-7.963565366744048690e-01,1.369151354883435978e+00,-3.116584928069559890e+00
-8.020298280001550983e-01,1.348507871799381475e+00,-3.118668899818027196e+00
-8.076915376836842908e-01,1.327873834905767936e+00,-3.120614720279432319e+00
-8.133416484784425915e-01,1.307250177033095095e+00,-3.122422528522786234e+00
-8.189801431732114390e-01,1.286637829839021752e+00,-3.124092469962408636e+00
-8.246070045921592984e-01,1.266037723764942502e+00,-3.125624696349298404e+00
-8.302222155948907334e-01,1.245450787992633535e+00,-3.127019365762205627e+00
-8.358257590764980316e-01,1.224877950400956594e+00,-3.128276642598402102e+00
-8.414176179676174927e-01,1.204320137522629564e+00,-3.129396697564155616e+00
-8.469977752344757249e-01,1.183778274501064098e+00,-3.130379707664910249e+00
-8.525662138789468214e-01,1.163253285047268770e+00,-3.131225856195165136e+00
-8.581229169386006550e-01,1.142746091396827701e+00,-3.131935332728061017e+00
-8.636678674867550587e-01,1.122257614266949144e+00,-3.132508333104666143e+00
-8.692010486325316698e-01,1.101788772813589112e+00,-3.132945059422973078e+00
-8.747224435208981186e-01,1.081340484588650952e+00,-3.133245720026597514e+00
-8.802320353327305336e-01,1.060913665497269953e+00,-3.133410529493180885e+00
-8.857298072848549531e-01,1.040509229755169907e+00,-3.133439708622502984e+00
-8.912157426301055008e-01,1.020128089846108699e+00,-3.133333484424302373e+00
-8.966898246573712372e-01,9.997711564794068417e-01,-3.133092090105796146e+00
-9.021520366916494504e-01,9.794393385475658187e-01,-3.132715765058919910e+00
-9.076023620940946168e-01,9.591335430839700305e-01,-3.132204754847265349e+00
-9.130407842620705816e-01,9.388546752206857748e-01,-3.131559311192734452e+00
-9.184672866291989646e-01,9.186036381463492662e-01,-3.130779691961902422e+00
-9.238818526654146712e-01,8.983813330641510220e-01,-3.129866161152083937e+00
-9.292844658770101907e-01,8.781886591499187267e-01,-3.128818988877121843e+00
-9.346751098066869989e-01,8.580265135102973506e-01,-3.127638451352885429e+00
-9.400537680336102930e-01,8.378957911410288562e-01,-3.126324830882464045e+00
-9.454204241734536218e-01,8.177973848853423711e-01,-3.124878415841108037e+00
-9.507750618784520658e-01,7.977321853924369544e-01,-3.123299500660845496e+00
-9.561176648374509757e-01,7.777010810760842663e-01,-3.121588385814845878e+00
-9.614482167759541564e-01,7.577049580733317136e-01,-3.119745377801476316e+00
-9.667667014561759364e-01,7.377447002033199475e-01,-3.117770789128087472e+00
-9.720731026770909056e-01,7.178211889262118284e-01,-3.115664938294508080e+00
-9.773674042744796564e-01,6.979353033022382968e-01,-3.113428149776267695e+00
-9.826495901209821859e-01,6.780879199508580424e-01,-3.111060754007524132e+00
-9.879196441261430817e-01,6.582799130100395191e-01,-3.108563087363723110e+00
-9.931775502364651453e-01,6.385121540956598674e-01,-3.105935492143968801e+00
-9.984232924354528027e-01,6.187855122610294023e-01,-3.103178316553120819e+00
-1.003656854743667948e+00,5.991008539565387814e-01,-3.100291914683608763e+00
-1.008878221218770799e+00,5.794590429894340700e-01,-3.097276646496978092e+00
-1.014087375955573300e+00,5.598609404837188164e-01,-3.094132877805146453e+00
-1.019284303086087196e+00,5.403074048401881324e-01,-3.090860980251396217e+00
-1.024468986779571100e+00,5.207992916965913377e-01,-3.087461331291084132e+00
-1.029641411242579574e+00,5.013374538879340481e-01,-3.083934314172084079e+00
-1.034801560719010638e+00,4.819227414069119364e-01,-3.080280317914954935e+00
-1.039949419490153293e+00,4.625560013644838264e-01,-3.076499737292829106e+00
-1.045084971874737478e+00,4.432380779505837864e-01,-3.072592972811041712e+00
-1.050208202228980703e+00,4.239698123949774966e-01,-3.068560430686485319e+00
-1.055319094946633784e+00,4.047520429282567278e-01,-3.064402522826691566e+00
-1.060417634459031921e+00,3.855856047429851996e-01,-3.060119666808649885e+00
-1.065503805235138879e+00,3.664713299549879899e-01,-3.055712285857358435e+00
-1.070577591781596727e+00,3.474100475647898811e-01,-3.051180808824108137e+00
-1.075638978642771360e+00,3.284025834192060289e-01,-3.046525670164502486e+00
-1.080687950400801789e+00,3.094497601730840097e-01,-3.041747309916209563e+00
-1.085724491675643000e+00,2.905523972512015218e-01,-3.036846173676460925e+00
-1.090748587125117686e+00,2.717113108103200725e-01,-3.031822712579276935e+00
-1.095760221444959104e+00,2.529273137013948736e-01,-3.026677383272440736e+00
-1.100759379368860813e+00,2.342012154319481898e-01,-3.021410647894205770e+00
-1.105746045668520638e+00,2.155338221286005329e-01,-3.016022974049752836e+00
-1.110720205153687745e+00,1.969259364997684725e-01,-3.010514834787379801e+00
-1.115681842672209934e+00,1.783783577985249280e-01,-3.004886708574443954e+00
-1.120630943110078936e+00,1.598918817856298802e-01,-2.999139079273044128e+00
-1.125567491391475716e+00,1.414673006927258947e-01,-2.993272436115451907e+00
-1.130491472478820203e+00,1.231054031857074654e-01,-2.987287273679282595e+00
-1.135402871372809708e+00,1.048069743282598332e-01,-2.981184091862434826e+00
-1.140301673112472436e+00,8.657279554557512080e-02,-2.974963395857746828e+00
-1.145187862775208787e+00,6.840364458823974814e-02,-2.968625696127437319e+00
-1.150061425476837762e+00,5.030029549630477687e-02,-2.962171508377277274e+00
-1.154922346371641817e+00,3.226351856352967229e-02,-2.955601353530520115e+00
-1.159770610652413492e+00,1.429408030181070210e-02,-2.948915757701590312e+00
-1.164606203550497376e+00,-3.607256594207122399e-03,-2.942115252169524631e+00
-1.169429110335841404e+00,-2.143973328234020925e-02,-2.935200373351166903e+00
-1.174239316317033044e+00,-3.920259480788296919e-02,-2.928171662774129214e+00
-1.179036806841351925e+00,-5.689509013844177426e-02,-2.921029667049506617e+00
-1.183821567294808697e+00,-7.451647219857610027e-02,-2.913774937844352486e+00
-1.188593583102194762e+00,-9.206599790425426533e-02,-2.906408031853921603e+00
-1.193352839727120696e+00,-1.095429281971102148e-01,-2.898929510773669449e+00
-1.198099322672066425e+00,-1.269465280785104233e-01,-2.891339941271022784e+00
-1.202833017478421640e+00,-1.442760666434242112e-01,-2.883639894956910421e+00
-1.207553909726531094e+00,-1.615308171140954485e-01,-2.875829948357066623e+00
-1.212261985035737677e+00,-1.787100568735155159e-01,-2.867910682883102247e+00
-1.216957229064428159e+00,-1.958130674986985065e-01,-2.859882684803344066e+00
-1.221639627510074932e+00,-2.128391347937499123e-01,-2.851746545213444950e+00
-1.226309166109280202e+00,-2.297875488227333896e-01,-2.843502860006772881e+00
-1.230965830637819058e+00,-2.466576039423355182e-01,-2.835152229844568605e+00
-1.235609606910684333e+00,-2.634485988343169272e-01,-2.826695260125881237e+00
-1.240240480782128119e+00,-2.801598365377608313e-01,-2.818132560957282706e+00
-1.244858438145705737e+00,-2.967906244811103211e-01,-2.809464747122356609e+00
-1.249463464934317480e+00,-3.133402745139909906e-01,-2.800692438050971678e+00
-1.254055547120253689e+00,-3.298081029388259533e-01,-2.791816257788335864e+00
-1.258634670715235382e+00,-3.461934305422307290e-01,-2.782836834963831496e+00
-1.263200821770458226e+00,-3.624955826261970770e-01,-2.773754802759637705e+00
-1.267753986376634057e+00,-3.787138890390557844e-01,-2.764570798879138369e+00
-1.272294150664033729e+00,-3.948476842062229597e-01,-2.755285465515114218e+00
-1.276821300802529313e+00,-4.108963071607240614e-01,-2.745899449317730223e+00
-1.281335423001636942e+00,-4.268591015734983785e-01,-2.736413401362308040e+00
-1.285836503510557005e+00,-4.427354157834757498e-01,-2.726827977116893287e+00
-1.290324528618217892e+00,-4.585246028274350127e-01,-2.717143836409618540e+00
-1.294799484653317068e+00,-4.742260204696305825e-01,-2.707361643395856721e+00
-1.299261357984361709e+00,-4.898390312311952655e-01,-2.697482066525172861e+00
-1.303710135019712446e+00,-5.053630024193102033e-01,-2.687505778508079590e+00
-1.308145802207622888e+00,-5.207973061561500527e-01,-2.677433456282584778e+00
-1.312568346036281142e+00,-5.361413194075907995e-01,-2.667265780980545120e+00
-1.316977753033852006e+00,-5.513944240116871454e-01,-2.657003437893821207e+00
-1.321374009768517377e+00,-5.665560067069171923e-01,-2.646647116440243419e+00
-1.325757102848515334e+00,-5.816254591601854873e-01,-2.636197510129370869e+00
-1.330127018922186100e+00,-5.966021779945976933e-01,-2.625655316528073602e+00
-1.334483744678006234e+00,-6.114855648169871261e-01,-2.615021237225914064e+00
-1.338827266844634378e+00,-6.262750262452093652e-01,-2.604295977800344275e+00
-1.343157572190948335e+00,-6.409699739351921721e-01,-2.593480247781717818e+00
-1.347474647526087033e+00,-6.555698246077424907e-01,-2.582574760618107312e+00
-1.351778479699490054e+00,-6.700740000751120862e-01,-2.571580233639951807e+00
-1.356069055600938711e+00,-6.844819272673147159e-01,-2.560497388024510546e+00
-1.360346362160594014e+00,-6.987930382582051569e-01,-2.549326948760145317e+00
-1.364610386349039306e+00,-7.130067702912988858e-01,-2.538069644610414066e+00
-1.368861115177316679e+00,-7.271225658053518393e-01,-2.526726208078000191e+00
-1.373098535696969380e+00,-7.411398724596902632e-01,-2.515297375368453547e+00
-1.377322635000079343e+00,-7.550581431592832127e-01,-2.503783886353770693e+00
-1.381533400219307817e+00,-7.688768360795700252e-01,-2.492186484535793056e+00
-1.385730818527933339e+00,-7.825954146910301112e-01,-2.480505917009441230e+00
-1.389914877139892146e+00,-7.962133477834973938e-01,-2.468742934425780078e+00
-1.394085563309816145e+00,-8.097301094902247254e-01,-2.456898290954914188e+00
-1.398242864333071545e+00,-8.231451793116836280e-01,-2.444972744248723018e+00
-1.402386767545798607e+00,-8.364580421391114573e-01,-2.432967055403429057e+00
-1.406517260324949614e+00,-8.496681882777993300e-01,-2.420881988922011452e+00
-1.410634330088327060e+00,-8.627751134701145963e-01,-2.408718312676452644e+00
-1.414737964294622730e+00,-8.757783189182690720e-01,-2.396476797869830033e+00
-1.418828150443454561e+00,-8.886773113068201502e-01,-2.384158218998254419e+00
-1.422904876075407277e+00,-9.014716028249076807e-01,-2.371763353812654795e+00
-1.426968128772066802e+00,-9.141607111882327219e-01,-2.359292983280402822e+00
-1.431017896156060454e+00,-9.267441596607617349e-01,-2.346747891546802300e+00
-1.435054165891095135e+00,-9.392214770761695419e-01,-2.334128865896412552e+00
-1.439076925681993302e+00,-9.515921978590162755e-01,-2.321436696714239911e+00
-1.443086163274730271e+00,-9.638558620456495474e-01,-2.308672177446777773e+00
-1.447081866456473520e+00,-9.760120153048417180e-01,-2.295836104562901436e+00
-1.451064023055618435e+00,-9.880602089581571601e-01,-2.282929277514629263e+00
-1.455032620941824950e+00,-1.000000000000040856e+00,-2.269952498697737742e+00
-1.458987648026055739e+00,-1.011830951117644428e+00,-2.256906573412244654e+00
-1.462929092260612629e+00,-1.023552630710371059e+00,-2.243792309822750575e+00
-1.466856941639173018e+00,-1.035164612909148962e+00,-2.230610518918656915e+00
-1.470771184196825843e+00,-1.046666477595429301e+00,-2.217362014474240084e+00
-1.474671808010109775e+00,-1.058057810419906763e+00,-2.204047613008607076e+00
-1.478558801197048966e+00,-1.069338202820963923e+00,-2.190668133745514279e+00
-1.482432151917187246e+00,-1.080507252042839372e+00,-2.177224398573068598e+00
-1.486291848371626312e+00,-1.091564561153510748e+00,-2.163717232003297575e+00
-1.490137878803062144e+00,-1.102509739062305982e+00,-2.150147461131602267e+00
-1.493970231495818535e+00,-1.113342400537227661e+00,-2.136515915596088888e+00
-1.497788894775885282e+00,-1.124062166221999171e+00,-2.122823427536779661e+00
-1.501593857010951050e+00,-1.134668662652827953e+00,-2.109070831554712644e+00
-1.505385106610441115e+00,-1.145161522274884769e+00,-2.095258964670922541e+00
-1.509162632025552009e+00,-1.155540383458500742e+00,-2.081388666285312272e+00
-1.512926421749285932e+00,-1.165804890515079073e+00,-2.067460778135412180e+00
-1.516676464316486950e+00,-1.175954693712719212e+00,-2.053476144255033109e+00
-1.520412748303874295e+00,-1.185989449291559250e+00,-2.039435610932811560e+00
-1.524135262330080121e+00,-1.195908819478828322e+00,-2.025340026670649163e+00
-1.527843995055680359e+00,-1.205712472503611687e+00,-2.011190242142055329e+00
-1.531538935183231809e+00,-1.215400082611328481e+00,-1.996987110150380884e+00
-1.535220071457306767e+00,-1.224971330077921250e+00,-1.982731485586962217e+00
-1.538887392664525011e+00,-1.234425901223753508e+00,-1.968424225389163285e+00
-1.542540887633590652e+00,-1.243763488427217734e+00,-1.954066188498322809e+00
-1.546180545235324111e+00,-1.252983790138054720e+00,-1.939658235817613985e+00
-1.549806354382696982e+00,-1.262086510890378932e+00,-1.925201230169810929e+00
-1.553418304030866448e+00,-1.271071361315411652e+00,-1.910696036254963204e+00
-1.557016383177207031e+00,-1.279938058153923031e+00,-1.896143520607991073e+00
-1.560600580861345898e+00,-1.288686324268378147e+00,-1.881544551556190159e+00
-1.564170886165194618e+00,-1.297315888654793747e+00,-1.866899999176661051e+00
-1.567727288212984904e+00,-1.305826486454293889e+00,-1.852210735253647877e+00
-1.571269776171298815e+00,-1.314217858964376928e+00,-1.837477633235807817e+00
-1.574798339249103840e+00,-1.322489753649881861e+00,-1.822701568193402233e+00
-1.578312966697785091e+00,-1.330641924153661559e+00,-1.807883416775412533e+00
-1.581813647811177947e+00,-1.338674130306958920e+00,-1.793024057166581420e+00
-1.585300371925599805e+00,-1.346586138139484801e+00,-1.778124369044391972e+00
-1.588773128419885383e+00,-1.354377719889199083e+00,-1.763185233535967900e+00
-1.592231906715415368e+00,-1.362048654011793536e+00,-1.748207533174919170e+00
-1.595676696276151274e+00,-1.369598725189876909e+00,-1.733192151858113261e+00
-1.599107486608666973e+00,-1.377027724341857606e+00,-1.718139974802392222e+00
-1.602524267262180890e+00,-1.384335448630533261e+00,-1.703051888501228461e+00
-1.605927027828584874e+00,-1.391521701471375660e+00,-1.687928780681317686e+00
-1.609315757942481273e+00,-1.398586292540514364e+00,-1.672771540259123668e+00
-1.612690447281210027e+00,-1.405529037782426105e+00,-1.657581057297364824e+00
-1.616051085564882861e+00,-1.412349759417315109e+00,-1.642358222961449510e+00
-1.619397662556412154e+00,-1.419048285948200760e+00,-1.627103929475866018e+00
-1.622730168061544020e+00,-1.425624452167694400e+00,-1.611819070080517502e+00
-1.626048591928888509e+00,-1.432078099164482810e+00,-1.596504538987021826e+00
-1.629352924049951357e+00,-1.438409074329502824e+00,-1.581161231334957673e+00
-1.632643154359164628e+00,-1.444617231361818188e+00,-1.565790043148077793e+00
-1.635919272833914695e+00,-1.450702430274190657e+00,-1.550391871290480950e+00
-1.639181269494577542e+00,-1.456664537398348003e+00,-1.534967613422743016e+00
-1.642429134404545188e+00,-1.462503425389951150e+00,-1.519518167958020749e+00
-1.645662857670257884e+00,-1.468218973233255120e+00,-1.504044434018114940e+00
-1.648882429441234310e+00,-1.473811066245467538e+00,-1.488547311389510241e+00
-1.652087839910099776e+00,-1.479279596080802284e+00,-1.473027700479381252e+00
-1.655279079312618640e+00,-1.484624460734231155e+00,-1.457486502271573725e+00
-1.658456137927721619e+00,-1.489845564544926892e+00,-1.441924618282564241e+00
-1.661619006077537763e+00,-1.494942818199405998e+00,-1.426342950517392349e+00
-1.664767674127421770e+00,-1.499916138734365134e+00,-1.410742401425578052e+00
-1.667902132485985511e+00,-1.504765449539212208e+00,-1.395123873857019303e+00
-1.671022371605124013e+00,-1.509490680358293258e+00,-1.379488271017870193e+00
-1.674128381980048763e+00,-1.514091767292813140e+00,-1.363836496426412914e+00
-1.677220154149313025e+00,-1.518568652802453123e+00,-1.348169453868909295e+00
-1.680297678694842478e+00,-1.522921285706682504e+00,-1.332488047355452343e+00
-1.683360946241964307e+00,-1.527149621185764028e+00,-1.316793181075800234e+00
-1.686409947459433400e+00,-1.531253620781453106e+00,-1.301085759355213867e+00
-1.689444673059464108e+00,-1.535233252397395720e+00,-1.285366686610284637e+00
-1.692465113797755327e+00,-1.539088490299218570e+00,-1.269636867304767547e+00
-1.695471260473521147e+00,-1.542819315114310141e+00,-1.253897205905406986e+00
-1.698463103929517715e+00,-1.546425713831303561e+00,-1.238148606837774057e+00
-1.701440635052070105e+00,-1.549907679799249705e+00,-1.222391974442104789e+00
-1.704403844771102738e+00,-1.553265212726485656e+00,-1.206628212929146127e+00
-1.707352724060165361e+00,-1.556498318679197634e+00,-1.190858226336010350e+00
-1.710287263936458801e+00,-1.559607010079680389e+00,-1.175082918482044825e+00
-1.713207455460867390e+00,-1.562591305704290834e+00,-1.159303192924711956e+00
-1.716113289737980052e+00,-1.565451230681093264e+00,-1.143519952915484028e+00
-1.719004757916122283e+00,-1.568186816487208146e+00,-1.127734101355762242e+00
-1.721881851187380352e+00,-1.570798100945846043e+00,-1.111946540752808188e+00
-1.724744560787629277e+00,-1.573285128223043783e+00,-1.096158173175699968e+00
-1.727592877996559251e+00,-1.575647948824094424e+00,-1.080369900211316958e+00
-1.730426794137701618e+00,-1.577886619589672357e+00,-1.064582622920343002e+00
-1.733246300578456411e+00,-1.580001203691655531e+00,-1.048797241793306689e+00
-1.736051388730118994e+00,-1.581991770628641047e+00,-1.033014656706642720e+00
-1.738842050047903154e+00,-1.583858396221161646e+00,-1.017235766878794356e+00
-1.741618276030971524e+00,-1.585601162606594894e+00,-1.001461470826345845e+00
-1.744380058222457341e+00,-1.587220158233769496e+00,-9.856926663201938110e-01
-1.747127388209493981e+00,-1.588715477857273850e+00,-9.699302503417546184e-01
-1.749860257623237381e+00,-1.590087222531451516e+00,-9.541751190392164794e-01
-1.752578658138893131e+00,-1.591335499604107584e+00,-9.384281676838329700e-01
-1.755282581475742232e+00,-1.592460422709901513e+00,-9.226902906262622883e-01
-1.757972019397165075e+00,-1.593462111763443989e+00,-9.069623812529492568e-01
-1.760646963710667867e+00,-1.594340692952092464e+00,-8.912453319425654996e-01
-1.763307406267905719e+00,-1.595096298728443607e+00,-8.755400340224944733e-01
-1.765953338964709074e+00,-1.595729067802525325e+00,-8.598473777253701211e-01
-1.768584753741108795e+00,-1.596239145133691473e+00,-8.441682521456752575e-01
-1.771201642581358593e+00,-1.596626681922210800e+00,-8.285035451963930209e-01
-1.773803997513961228e+00,-1.596891835600562803e+00,-8.128541435657206105e-01
-1.776391810611692712e+00,-1.597034769824431599e+00,-7.972209326738451951e-01
-1.778965073991624735e+00,-1.597055654463398700e+00,-7.816047966297835492e-01
-1.781523779815151531e+00,-1.596954665591341138e+00,-7.660066181882821956e-01
-1.784067920288011200e+00,-1.596731985476532500e+00,-7.504272787067972628e-01
-1.786597487660310346e+00,-1.596387802571442860e+00,-7.348676581025311849e-01
-1.789112474226548510e+00,-1.595922311502244728e+00,-7.193286348095518923e-01
-1.791612872325639927e+00,-1.595335713058020799e+00,-7.038110857359796135e-01
-1.794098674340938837e+00,-1.594628214179679038e+00,-6.883158862212539475e-01
-1.796569872700261916e+00,-1.593800027948570008e+00,-6.728439099934750978e-01
-1.799026459875908701e+00,-1.592851373574808882e+00,-6.573960291268301503e-01
-1.801468428384689124e+00,-1.591782476385305678e+00,-6.419731139990982882e-01
-1.803895770787944608e+00,-1.590593567811500852e+00,-6.265760332492417151e-01
-1.806308479691568492e+00,-1.589284885376807566e+00,-6.112056537350806229e-01
-1.808706547746030679e+00,-1.587856672683762183e+00,-5.958628404910624177e-01
-1.811089967646400511e+00,-1.586309179400882785e+00,-5.805484566861137674e-01
-1.813458732132367635e+00,-1.584642661249235474e+00,-5.652633635815902391e-01
-1.815812833988264652e+00,-1.582857379988713786e+00,-5.500084204893197493e-01
-1.818152266043088883e+00,-1.580953603404023911e+00,-5.347844847297407167e-01
-1.820477021170524567e+00,-1.578931605290382567e+00,-5.195924115901386919e-01
-1.822787092288964628e+00,-1.576791665438927792e+00,-5.044330542829864594e-01
-1.825082472361531316e+00,-1.574534069621839949e+00,-4.893072639043825611e-01
-1.827363154396099310e+00,-1.572159109577177638e+00,-4.742158893925973451e-01
-1.829629131445315027e+00,-1.569667082993424057e+00,-4.591597774867242632e-01
-1.831880396606620609e+00,-1.567058293493751364e+00,-4.441397726854372507e-01
-1.834116943022270796e+00,-1.564333050619999277e+00,-4.291567172058649016e-01
-1.836338763879358016e+00,-1.561491669816368111e+00,-4.142114509425685043e-01
-1.838545852409830150e+00,-1.558534472412830274e+00,-3.993048114266414816e-01
-1.840738201890512515e+00,-1.555461785608257319e+00,-3.844376337849206848e-01
-1.842915805643129623e+00,-1.552273942453269662e+00,-3.696107506993188685e-01
-1.845078657034321834e+00,-1.548971281832798086e+00,-3.548249923662742389e-01
-1.847226749475668672e+00,-1.545554148448373244e+00,-3.400811864563240694e-01
-1.849360076423708366e+00,-1.542022892800132050e+00,-3.253801580738038823e-01
-1.851478631379956497e+00,-1.538377871168543853e+00,-3.107227297166675895e-01
-1.853582407890928208e+00,-1.534619445595862164e+00,-2.961097212364401376e-01
-1.855671399548154632e+00,-1.530747983867302819e+00,-2.815419497982994956e-01
-1.857745599988205099e+00,-1.526763859491936604e+00,-2.670202298412860387e-01
-1.859805002892705561e+00,-1.522667451683318962e+00,-2.525453730386519879e-01
-1.861849601988357028e+00,-1.518459145339837724e+00,-2.381181882583398857e-01
-1.863879391046957101e+00,-1.514139331024791701e+00,-2.237394815236040391e-01
-1.865894363885415741e+00,-1.509708404946194849e+00,-2.094100559737672729e-01
-1.867894514365776137e+00,-1.505166768936313959e+00,-1.951307118251208450e-01
-1.869879836395232253e+00,-1.500514830430931257e+00,-1.809022463319656104e-01
-1.871850323926150583e+00,-1.495753002448340085e+00,-1.667254537478006782e-01
-1.873805970956083478e+00,-1.490881703568075922e+00,-1.526011252866571188e-01
-1.875746771527790902e+00,-1.485901357909374276e+00,-1.385300490845781107e-01
-1.877672719729257311e+00,-1.480812395109368351e+00,-1.245130101612548640e-01
-1.879583809693711860e+00,-1.475615250301017145e+00,-1.105507903818101489e-01
-1.881480035599641720e+00,-1.470310364090774202e+00,-9.664416841873736674e-02
-1.883361391670814733e+00,-1.464898182535992355e+00,-8.279391971399574501e-02
-1.885227872176292951e+00,-1.459379157122062232e+00,-6.900081644126318525e-02
-1.887079471430454625e+00,-1.453753744739298526e+00,-5.526562746834878109e-02
-1.888916183793005965e+00,-1.448022407659559807e+00,-4.158911831976541684e-02
-1.890738003669003131e+00,-1.442185613512614317e+00,-2.797205113946779273e-02
-1.892544925508867548e+00,-1.436243835262245305e+00,-1.441518465375242301e-02
-1.894336943808400342e+00,-1.430197551182103899e+00,-9.192741343267086997e-04
-1.896114053108804098e+00,-1.424047244831302850e+00,1.251492863845436038e-02
-1.897876247996695964e+00,-1.417793405029762699e+00,2.588667541218217169e-02
-1.899623523104123413e+00,-1.411436525833297262e+00,3.919522149881458917e-02
-1.901355873108585115e+00,-1.404977106508457085e+00,5.243982581092544726e-02
-1.903073292733041155e+00,-1.398415651507113333e+00,6.561975089777496994e-02
-1.904775776745933902e+00,-1.391752670440801642e+00,7.873426298120582423e-02
-1.906463319961201774e+00,-1.384988678054811739e+00,9.178263199135940076e-02
-1.908135917238295898e+00,-1.378124194202032582e+00,1.047641316022105556e-01
-1.909793563482194312e+00,-1.371159743816555476e+00,1.176780392669234399e-01
-1.911436253643419736e+00,-1.364095856887028058e+00,1.305236362530179939e-01
-1.913063982718052225e+00,-1.356933068429769351e+00,1.433002076773557676e-01
-1.914676745747747599e+00,-1.349671918461643916e+00,1.560070425409363359e-01
-1.916274537819749435e+00,-1.342312951972690405e+00,1.686434337635037695e-01
-1.917857354066906383e+00,-1.334856718898519645e+00,1.812086782179649636e-01
-1.919425189667684606e+00,-1.327303774092469135e+00,1.937020767646151498e-01
-1.920978039846186425e+00,-1.319654677297524170e+00,2.061229342851656210e-01
-1.922515899872160317e+00,-1.311909993118001827e+00,2.184705597165824964e-01
-1.924038765061017342e+00,-1.304070290991006464e+00,2.307442660847219829e-01
-1.925546630773846690e+00,-1.296136145157648079e+00,2.429433705377723185e-01
-1.927039492417427891e+00,-1.288108134634031510e+00,2.550671943794908247e-01
-1.928517345444245024e+00,-1.279986843182018941e+00,2.671150631022423672e-01
-1.929980185352501820e+00,-1.271772859279761025e+00,2.790863064198318422e-01
-1.931428007686134762e+00,-1.263466776092003974e+00,2.909802583001337428e-01
-1.932860808034824851e+00,-1.255069191440171483e+00,3.027962569975128915e-01
-1.934278582034014482e+00,-1.246580707772220409e+00,3.145336450850391707e-01
-1.935681325364917660e+00,-1.238001932132279492e+00,3.261917694864905903e-01
-1.937069033754535319e+00,-1.229333476130061609e+00,3.377699815081454116e-01
-1.938441702975666869e+00,-1.220575955910062182e+00,3.492676368703635514e-01
-1.939799328846924187e+00,-1.211729992120534005e+00,3.606840957389501612e-01
-1.941141907232742492e+00,-1.202796209882254219e+00,3.720187227563065413e-01
-1.942469434043396337e+00,-1.193775238757065704e+00,3.832708870723620653e-01
-1.943781905235008045e+00,-1.184667712716215515e+00,3.944399623752876116e-01
-1.945079316809562808e+00,-1.175474270108475494e+00,4.055253269219888379e-01
-1.946361664814920456e+00,-1.166195553628054382e+00,4.165263635683779109e-01
-1.947628945344826557e+00,-1.156832210282301210e+00,4.274424597994215813e-01
-1.948881154538924187e+00,-1.147384891359202630e+00,4.382730077589661044e-01
-1.950118288582767256e+00,-1.137854252394672416e+00,4.490174042793328990e-01
-1.951340343707831160e+00,-1.128240953139639791e+00,4.596750509106915517e-01
-1.952547316191523885e+00,-1.118545657526933912e+00,4.702453539501985080e-01
-1.953739202357197779e+00,-1.108769033637964752e+00,4.807277244709105002e-01
-1.954915998574161540e+00,-1.098911753669212787e+00,4.911215783504639387e-01
-1.956077701257688872e+00,-1.088974493898510643e+00,5.014263362995197149e-01
-1.957224306869032260e+00,-1.078957934651138650e+00,5.116414238899774647e-01
-1.958355811915432731e+00,-1.068862760265718359e+00,5.217662715829515241e-01
-1.959472212950128966e+00,-1.058689659059916410e+00,5.318003147565100175e-01
-1.960573506572370173e+00,-1.048439323295960346e+00,5.417429937331762480e-01
-1.961659689427424746e+00,-1.038112449145958127e+00,5.515937538071900015e-01
-1.962730758206591597e+00,-1.027709736657037132e+00,5.613520452715287101e-01
-1.963786709647208806e+00,-1.017231889716291304e+00,5.710173234446849211e-01
-1.964827540532666506e+00,-1.006679616015547341e+00,5.805890486972004050e-01
-1.965853247692411987e+00,-9.960536270159469074e-01,5.900666864779569032e-01
-1.966863828001964354e+00,-9.853546379123484522e-01,5.994497073402198506e-01
-1.967859278382919852e+00,-9.745833675975483779e-01,6.087375869674337414e-01
-1.968839595802964082e+00,-9.637405386263259155e-01,6.179298061987704704e-01
-1.969804777275881102e+00,-9.528268771793116931e-01,6.270258510544264308e-01
-1.970754819861559870e+00,-9.418431130266818885e-01,6.360252127606715877e-01
-1.971689720666005785e+00,-9.307899794916809633e-01,6.449273877746413142e-01
-1.972609476841349352e+00,-9.196682134139728682e-01,6.537318778088800908e-01
-1.973514085585854172e+00,-9.084785551128214953e-01,6.624381898556268577e-01
-1.974403544143924494e+00,-8.972217483501085944e-01,6.710458362108459029e-01
-1.975277849806114983e+00,-8.858985402931826014e-01,6.795543344980029543e-01
-1.976136999909139602e+00,-8.745096814775442651e-01,6.879632076915783712e-01
-1.976980991835877832e+00,-8.630559257693720676e-01,6.962719841403262055e-01
-1.977809823015383994e+00,-8.515380303278866636e-01,7.044801975902708069e-01
-1.978623490922894579e+00,-8.399567555675562236e-01,7.125873872074406368e-01
-1.979421993079836017e+00,-8.283128651201473458e-01,7.205930976003428468e-01
-1.980205327053832676e+00,-8.166071257966196484e-01,7.284968788421717356e-01
-1.980973490458712405e+00,-8.048403075488689273e-01,7.362982864927538618e-01
-1.981726480954517422e+00,-7.930131834313184358e-01,7.439968816202271462e-01
-1.982464296247506974e+00,-7.811265295623603944e-01,7.515922308224530779e-01
-1.983186934090168663e+00,-7.691811250856540605e-01,7.590839062481617994e-01
-1.983894392281221553e+00,-7.571777521312724746e-01,7.664714856178281854e-01
-1.984586668665625719e+00,-7.451171957767107612e-01,7.737545522442781376e-01
-1.985263761134587357e+00,-7.330002440077506565e-01,7.809326950530239841e-01
-1.985925667625565216e+00,-7.208276876791853693e-01,7.880055086023292077e-01
-1.986572386122277045e+00,-7.086003204754055540e-01,7.949725931029986148e-01
-1.987203914654706471e+00,-6.963189388708528327e-01,8.018335544378977220e-01
-1.987820251299108332e+00,-6.839843420903345406e-01,8.085880041811940311e-01
-1.988421394178013779e+00,-6.715973320692096848e-01,8.152355596173267438e-01
-1.989007341460237610e+00,-6.591587134134426762e-01,8.217758437596971444e-01
-1.989578091360882484e+00,-6.466692933595302728e-01,8.282084853690836468e-01
-1.990133642141345582e+00,-6.341298817343010708e-01,8.345331189717770659e-01
-1.990673992109323276e+00,-6.215412909145897613e-01,8.407493848774387768e-01
-1.991199139618815117e+00,-6.089043357867900408e-01,8.468569291966766555e-01
-1.991709083070130504e+00,-5.962198337062872833e-01,8.528554038583437968e-01
-1.992203820909894008e+00,-5.834886044567704211e-01,8.587444666265514615e-01
-1.992683351631048261e+00,-5.707114702094285841e-01,8.645237811174034670e-01
-1.993147673772858619e+00,-5.578892554820334970e-01,8.701930168154450307e-01
-1.993596785920920933e+00,-5.450227870979067468e-01,8.757518490898289487e-01
-1.994030686707159994e+00,-5.321128941447784699e-01,8.811999592101968926e-01
-1.994449374809839970e+00,-5.191604079335357946e-01,8.865370343622744898e-01
-1.994852848953563740e+00,-5.061661619568647019e-01,8.917627676631814104e-01
-1.995241107909279554e+00,-4.931309918477873033e-01,8.968768581764531289e-01
-1.995614150494282590e+00,-4.800557353380953685e-01,9.018790109267768029e-01
-1.995971975572221169e+00,-4.669412322166830998e-01,9.067689369144371625e-01
-1.996314582053097197e+00,-4.537883242877820411e-01,9.115463531294737409e-01
-1.996641968893273278e+00,-4.405978553290966770e-01,9.162109825655503359e-01
-1.996954135095470706e+00,-4.273706710498475503e-01,9.207625542335300395e-01
-1.997251079708777910e+00,-4.141076190487197883e-01,9.252008031747631644e-01
-1.997532801828650673e+00,-4.008095487717209804e-01,9.295254704740820717e-01
-1.997799300596913463e+00,-3.874773114699508469e-01,9.337363032725026768e-01
-1.998050575201764545e+00,-3.741117601572828688e-01,9.378330547796341898e-01
-1.998286624877779527e+00,-3.607137495679615391e-01,9.418154842857964226e-01
-1.998507448905909145e+00,-3.472841361141175698e-01,9.456833571738394451e-01
-1.998713046613485256e+00,-3.338237778432007752e-01,9.494364449306732512e-01
-1.998903417374221281e+00,-3.203335343953350178e-01,9.530745251584976652e-01
-1.999078560608215538e+00,-3.068142669605967154e-01,9.565973815857414797e-01
-1.999238475781950797e+00,-2.932668382362175752e-01,9.600048040776996139e-01
-1.999383162408298276e+00,-2.796921123837159961e-01,9.632965886468790595e-01
-1.999512620046516309e+00,-2.660909549859571399e-01,9.664725374630428467e-01
-1.999626848302255455e+00,-2.524642330041440563e-01,9.695324588629606888e-01
-1.999725846827556497e+00,-2.388128147347435837e-01,9.724761673598568690e-01
-1.999809615320852885e+00,-2.251375697663463848e-01,9.753034836525629192e-01
-1.999878153526970515e+00,-2.114393689364661433e-01,9.780142346343717596e-01
-1.999931461237130392e+00,-1.977190842882769195e-01,9.806082534015865271e-01
-1.999969538288949300e+00,-1.839775890272938585e-01,9.830853792617777476e-01
-1.999992384566435577e+00,-1.702157574779964710e-01,9.854454577417327554e-01
-1.999999999999997558e+00,-1.564344650403987347e-01,9.876883405951099038e-01
-1.999992384566436687e+00,-1.426345881465667376e-01,9.898138858097891291e-01
-1.999969538288949966e+00,-1.288170042170868057e-01,9.918219576149199801e-01
-1.999931461237132391e+00,-1.149825916174854329e-01,9.937124264876698865e-01
-1.999878153526972957e+00,-1.011322296146040384e-01,9.954851691596726670e-01
-1.999809615320855549e+00,-8.726679833292952382e-02,9.971400686231656207e-01
-1.999725846827560272e+00,-7.338717871088362710e-02,9.986770141368367382e-01
-1.999626848302259896e+00,-5.949425245707291865e-02,1.000095901231357276e+00
-1.999512620046521416e+00,-4.558890200650131397e-02,1.001396631714619678e+00
-1.999383162408303383e+00,-3.167201047674722547e-02,1.002579113676664413e+00
-1.999238475781957236e+00,-1.774446162410794545e-02,1.003643261494312489e+00
-1.999078560608222421e+00,-3.807139799712666497e-03,1.004588995835482779e+00
-1.998903417374228608e+00,1.013907009439331090e-02,1.005416243663215914e+00
-1.998713046613493027e+00,2.409328264919115975e-02,1.006124938239386646e+00
-1.998507448905917583e+00,3.805461199265597338e-02,1.006715019128112676e+00
-1.998286624877788631e+00,5.202217183374660547e-02,1.007186432198864168e+00
-1.998050575201774537e+00,6.599507550641624254e-02,1.007539129629259955e+00
-1.997799300596923677e+00,7.997243601364124876e-02,1.007773069907566876e+00
-1.997532801828661331e+00,9.395336607146631547e-02,1.007888217834887579e+00
-1.997251079708789234e+00,1.079369781530639255e-01,1.007884544527049009e+00
-1.996954135095482696e+00,1.219223845328056138e-01,1.007762027416177597e+00
-1.996641968893285490e+00,1.359086973303434420e-01,1.007520650251980010e+00
-1.996314582053110742e+00,1.498950285546993000e-01,1.007160403102708157e+00
-1.995971975572235158e+00,1.638804901483597032e-01,1.006681282355824436e+00
-1.995614150494297245e+00,1.778641940313745451e-01,1.006083290718360557e+00
-1.995241107909294653e+00,1.918452521454570847e-01,1.005366437216969500e+00
-1.994852848953579727e+00,2.058227764980836705e-01,1.004530737197674384e+00
-1.994449374809856401e+00,2.197958792065899947e-01,1.003576212325307804e+00
-1.994030686707177091e+00,2.337636725422637396e-01,1.002502890582650075e+00
-1.993596785920938030e+00,2.477252689744291747e-01,1.001310806269260612e+00
-1.993147673772877049e+00,2.616797812145230662e-01,1.000000000000000444e+00
-1.992683351631066468e+00,2.756263222601598728e-01,9.985705187032566377e-01
-1.992203820909913103e+00,2.895640054391827589e-01,9.970224156188536302e-01
-1.991709083070150710e+00,3.034919444537003685e-01,9.953557502956641434e-01
-1.991199139618835323e+00,3.174092534241046981e-01,9.935705885889155597e-01
-1.990673992109343926e+00,3.313150469330707337e-01,9.916670026571886565e-01
-1.990133642141367565e+00,3.452084400695336064e-01,9.896450709591105843e-01
-1.989578091360905132e+00,3.590885484726424326e-01,9.875048782497498623e-01
-1.989007341460260703e+00,3.729544883756868434e-01,9.852465155766992888e-01
-1.988421394178037316e+00,3.868053766499982005e-01,9.828700802758587596e-01
-1.987820251299132535e+00,4.006403308488170056e-01,9.803756759669139953e-01
-1.987203914654731562e+00,4.144584692511322777e-01,9.777634125485081817e-01
-1.986572386122302802e+00,4.282589109054831811e-01,9.750334061931158480e-01
-1.985925667625591196e+00,4.420407756737246840e-01,9.721857793416078808e-01
-1.985263761134614002e+00,4.558031842747575779e-01,9.692206606975152239e-01
-1.984586668665652809e+00,4.695452583282141434e-01,9.661381852209919296e-01
-1.983894392281249530e+00,4.832661203981031273e-01,9.629384941224728989e-01
-1.983186934090196862e+00,4.969648940364095879e-01,9.596217348560304172e-01
-1.982464296247536062e+00,5.106407038266480569e-01,9.561880611124282670e-01
-1.981726480954546732e+00,5.242926754273654621e-01,9.526376328118767445e-01
-1.980973490458742603e+00,5.379199356155953682e-01,9.489706160964818116e-01
-1.980205327053863318e+00,5.515216123302560947e-01,9.451871833223988162e-01
-1.979421993079867548e+00,5.650968347154967653e-01,9.412875130516806799e-01
-1.978623490922926775e+00,5.786447331639830161e-01,9.372717900438302108e-01
-1.977809823015416635e+00,5.921644393601258605e-01,9.331402052470501030e-01
-1.976980991835911361e+00,6.056550863232470494e-01,9.288929557891933975e-01
-1.976136999909173353e+00,6.191158084506824810e-01,9.245302449684175139e-01
-1.975277849806149622e+00,6.325457415608199963e-01,9.200522822435390768e-01
-1.974403544143959577e+00,6.459440229360672303e-01,9.154592832240876499e-01
-1.973514085585889921e+00,6.593097913657530729e-01,9.107514696600667037e-01
-1.972609476841385989e+00,6.726421871889554094e-01,9.059290694314153791e-01
-1.971689720666042867e+00,6.859403523372553657e-01,9.009923165371735987e-01
-1.970754819861596951e+00,6.992034303774153914e-01,8.959414510843501933e-01
-1.969804777275918850e+00,7.124305665539799604e-01,8.907767192764992625e-01
-1.968839595803002718e+00,7.256209078317968908e-01,8.854983734019982178e-01
-1.967859278382958710e+00,7.387736029384558423e-01,8.801066718220325047e-01
-1.966863828002003656e+00,7.518878024066413257e-01,8.746018789582871156e-01
-1.965853247692452621e+00,7.649626586164038899e-01,8.689842652803445588e-01
-1.964827540532707362e+00,7.779973258373386047e-01,8.632541072927900627e-01
-1.963786709647250994e+00,7.909909602706765019e-01,8.574116875220255674e-01
-1.962730758206633785e+00,8.039427200912829807e-01,8.514572945027920614e-01
-1.961659689427467601e+00,8.168517654895613989e-01,8.453912227644000410e-01
-1.960573506572413027e+00,8.297172587132616295e-01,8.392137728166724209e-01
-1.959472212950173153e+00,8.425383641091903630e-01,8.329252511355970112e-01
-1.958355811915477362e+00,8.553142481648202677e-01,8.265259701486881161e-01
-1.957224306869077557e+00,8.680440795497981199e-01,8.200162482200644698e-01
-1.956077701257734613e+00,8.807270291573480181e-01,8.133964096352369610e-01
-1.954915998574207725e+00,8.933622701455706805e-01,8.066667845856101415e-01
-1.953739202357245075e+00,9.059489779786306096e-01,7.998277091526992955e-01
-1.952547316191571625e+00,9.184863304678368978e-01,7.928795252920606274e-01
-1.951340343707879121e+00,9.309735078126103458e-01,7.858225808169397864e-01
-1.950118288582816328e+00,9.434096926413375606e-01,7.786572293816339529e-01
-1.948881154538973481e+00,9.557940700521071475e-01,7.713838304645732613e-01
-1.947628945344876517e+00,9.681258276533314389e-01,7.640027493511208911e-01
-1.946361664814970860e+00,9.804041556042438765e-01,7.565143571160882763e-01
-1.945079316809614101e+00,9.926282466552800443e-01,7.489190306059768654e-01
-1.943781905235060004e+00,1.004797296188329581e+00,7.412171524209335560e-01
-1.942469434043448739e+00,1.016910502256866078e+00,7.334091108964315708e-01
-1.941141907232795560e+00,1.028967065625947974e+00,7.254953000846736666e-01
-1.939799328846977478e+00,1.040966189812091214e+00,7.174761197357171216e-01
-1.938441702975721270e+00,1.052907081123009014e+00,7.093519752783231658e-01
-1.937069033754590164e+00,1.064788948697218851e+00,7.011232778005336286e-01
-1.935681325364972949e+00,1.076611004543513994e+00,6.927904440299703648e-01
-1.934278582034070437e+00,1.088372463580300264e+00,6.843538963138635633e-01
-1.932860808034881694e+00,1.100072543674790237e+00,6.758140625988089401e-01
-1.931428007686191606e+00,1.111710465682058890e+00,6.671713764102514821e-01
-1.929980185352559774e+00,1.123285453483956475e+00,6.584262768316999637e-01
-1.928517345444303421e+00,1.134796734027875731e+00,6.495792084836732316e-01
-1.927039492417487176e+00,1.146243537365374099e+00,6.406306215023773731e-01
-1.925546630773906420e+00,1.157625096690644950e+00,6.315809715181163186e-01
-1.924038765061077738e+00,1.168940648378845371e+00,6.224307196334362136e-01
-1.922515899872220713e+00,1.180189432024260521e+00,6.131803324010042244e-01
-1.920978039846247931e+00,1.191370690478328109e+00,6.038302818012242223e-01
-1.919425189667747222e+00,1.202483669887493667e+00,5.943810452195893435e-01
-1.917857354066968778e+00,1.213527619730920604e+00,5.848331054237727589e-01
-1.916274537819812718e+00,1.224501792858031068e+00,5.751869505404563210e-01
-1.914676745747811770e+00,1.235405445525892487e+00,5.654430740319029702e-01
-1.913063982718116618e+00,1.246237837436437790e+00,5.556019746722662411e-01
-1.911436253643484573e+00,1.256998231773523322e+00,5.456641565236469704e-01
-1.909793563482259815e+00,1.267685895239817340e+00,5.356301289118893250e-01
-1.908135917238362067e+00,1.278300098093525738e+00,5.255004064021261412e-01
-1.906463319961268388e+00,1.288840114184939267e+00,5.152755087740659157e-01
-1.904775776746001403e+00,1.299305220992819532e+00,5.049559609970317720e-01
-1.903073292733108657e+00,1.309694699660602701e+00,4.945422932047443543e-01
-1.901355873108653505e+00,1.320007835032433796e+00,4.840350406698578634e-01
-1.899623523104192691e+00,1.330243915689020673e+00,4.734347437782456813e-01
-1.897876247996765464e+00,1.340402233983311708e+00,4.627419480030376953e-01
-1.896114053108874931e+00,1.350482086075994292e+00,4.519572038784120394e-01
-1.894336943808471174e+00,1.360482771970804139e+00,4.410810669731399236e-01
-1.892544925508939047e+00,1.370403595549661180e+00,4.301140978638883228e-01
-1.890738003669075074e+00,1.380243864607614279e+00,4.190568621082789158e-01
-1.888916183793078796e+00,1.390002890887598541e+00,4.079099302177044417e-01
-1.887079471430527899e+00,1.399679990115005213e+00,3.966738776299069125e-01
-1.885227872176367336e+00,1.409274482032062625e+00,3.853492846813141859e-01
-1.883361391670888896e+00,1.418785690432023072e+00,3.739367365791438358e-01
-1.881480035599716771e+00,1.428212943193156947e+00,3.624368233732631617e-01
-1.879583809693787355e+00,1.437555572312550600e+00,3.508501399278221022e-01
-1.877672719729334139e+00,1.446812913939709677e+00,3.391772858926461187e-01
-1.875746771527867507e+00,1.455984308409962180e+00,3.274188656744028147e-01
-1.873805970956160971e+00,1.465069100277660574e+00,3.155754884075325228e-01
-1.871850323926228743e+00,1.474066638349185165e+00,3.036477679249517392e-01
-1.869879836395311301e+00,1.482976275715741865e+00,2.916363227285302395e-01
-1.867894514365855185e+00,1.491797369785953897e+00,2.795417759593368245e-01
-1.865894363885495233e+00,1.500529282318252777e+00,2.673647553676659627e-01
-1.863879391047037926e+00,1.509171379453055906e+00,2.551058932828355053e-01
-1.861849601988438518e+00,1.517723031744733664e+00,2.427658265827634387e-01
-1.859805002892787051e+00,1.526183614193372229e+00,2.303451966633272563e-01
-1.857745599988287033e+00,1.534552506276319228e+00,2.178446494074977036e-01
-1.855671399548237455e+00,1.542829091979513789e+00,2.052648351542608884e-01
-1.853582407891011696e+00,1.551012759828604315e+00,1.926064086673175690e-01
-1.851478631380040429e+00,1.559102902919849765e+00,1.798700291035754129e-01
-1.849360076423792520e+00,1.567098918950798003e+00,1.670563599814188227e-01
-1.847226749475753715e+00,1.575000210250750765e+00,1.541660691487740098e-01
-1.845078657034407321e+00,1.582806183810998801e+00,1.411998287509606820e-01
-1.842915805643215998e+00,1.590516251314842533e+00,1.281583151983337054e-01
-1.840738201890600001e+00,1.598129829167383553e+00,1.150422091337209435e-01
-1.838545852409917636e+00,1.605646338525090533e+00,1.018521953996515683e-01
-1.836338763879445724e+00,1.613065205325140417e+00,8.858896300538329771e-02
-1.834116943022359614e+00,1.620385860314527804e+00,7.525320509372425415e-02
-1.831880396606709649e+00,1.627607739078948734e+00,6.184561890765547659e-02
-1.829629131445405177e+00,1.634730282071446883e+00,4.836690575675555576e-02
-1.827363154396189460e+00,1.641752934640833717e+00,3.481777098342166143e-02
-1.825082472361622354e+00,1.648675147059870838e+00,2.119892392890227947e-02
-1.822787092289055888e+00,1.655496374553215855e+00,7.511077899128420707e-03
-1.820477021170616938e+00,1.662216077325134655e+00,-6.245049869643429230e-03
-1.818152266043181697e+00,1.668833720586974989e+00,-2.006873824538329618e-02
-1.815812833988358133e+00,1.675348774584398903e+00,-3.395926223502526708e-02
-1.813458732132461781e+00,1.681760714624372932e+00,-4.791589301939847001e-02
-1.811089967646495102e+00,1.688069021101923806e+00,-6.193789798833805593e-02
-1.808706547746125715e+00,1.694273179526640360e+00,-7.602454077598642945e-02
-1.806308479691663971e+00,1.700372680548941196e+00,-9.017508129627475888e-02
-1.803895770788040753e+00,1.706367019986086753e+00,-1.043887757785845749e-01
-1.801468428384785714e+00,1.712255698847954033e+00,-1.186648768035927504e-01
-1.799026459876005957e+00,1.718038223362553296e+00,-1.330026333392906879e-01
-1.796569872700359172e+00,1.723714105001305397e+00,-1.474012907771821979e-01
-1.794098674341037425e+00,1.729282860504057995e+00,-1.618600909686531697e-01
-1.791612872325738959e+00,1.734744011903858851e+00,-1.763782722615156451e-01
-1.789112474226647986e+00,1.740097086551468886e+00,-1.909550695367248085e-01
-1.786597487660410488e+00,1.745341617139627655e+00,-2.055897142452609572e-01
-1.784067920288111786e+00,1.750477141727057262e+00,-2.202814344451802520e-01
-1.781523779815252784e+00,1.755503203762212028e+00,-2.350294548388338900e-01
-1.778965073991726653e+00,1.760419352106773916e+00,-2.498329968102478427e-01
-1.776391810611795075e+00,1.765225141058882619e+00,-2.646912784626648807e-01
-1.773803997514064257e+00,1.769920130376109624e+00,-2.796035146562498852e-01
-1.771201642581462288e+00,1.774503885298171157e+00,-2.945689170459508954e-01
-1.768584753741213156e+00,1.778975976569379114e+00,-3.095866941195157818e-01
-1.765953338964814101e+00,1.783335980460826198e+00,-3.246560512356684858e-01
-1.763307406268011190e+00,1.787583478792308611e+00,-3.397761906624324757e-01
-1.760646963710774004e+00,1.791718058953984727e+00,-3.549463116156112430e-01
-1.757972019397271879e+00,1.795739313927765979e+00,-3.701656102974126838e-01
-1.755282581475849701e+00,1.799646842308437522e+00,-3.854332799352233607e-01
-1.752578658139001044e+00,1.803440248324516437e+00,-4.007485108205318669e-01
-1.749860257623345294e+00,1.807119141858836375e+00,-4.161104903479890815e-01
-1.747127388209602339e+00,1.810683138468861086e+00,-4.315184030546159177e-01
-1.744380058222567031e+00,1.814131859406730385e+00,-4.469714306591486830e-01
-1.741618276031081436e+00,1.817464931639031667e+00,-4.624687521015226066e-01
-1.738842050048013732e+00,1.820681987866295648e+00,-4.780095435824952554e-01
-1.736051388730230238e+00,1.823782666542222541e+00,-4.935929786033958488e-01
-1.733246300578568322e+00,1.826766611892630898e+00,-5.092182280060176813e-01
-1.730426794137813751e+00,1.829633473934127341e+00,-5.248844600126343352e-01
-1.727592877996672049e+00,1.832382908492507179e+00,-5.405908402661452339e-01
-1.724744560787742964e+00,1.835014577220868803e+00,-5.563365318703501483e-01
-1.721881851187494483e+00,1.837528147617453200e+00,-5.721206954303483805e-01
-1.719004757916237081e+00,1.839923293043205010e+00,-5.879424890930572412e-01
-1.716113289738095293e+00,1.842199692739051820e+00,-6.038010685878569817e-01
-1.713207455460982853e+00,1.844357031842899897e+00,-6.196955872673510779e-01
-1.710287263936575597e+00,1.846395001406354375e+00,-6.356251961482435320e-01
-1.707352724060281934e+00,1.848313298411148997e+00,-6.515890439523340794e-01
-1.704403844771220422e+00,1.850111625785295644e+00,-6.675862771476240853e-01
-1.701440635052188233e+00,1.851789692418952749e+00,-6.836160399895335749e-01
-1.698463103929636286e+00,1.853347213180001951e+00,-6.996774745622310610e-01
-1.695471260473640829e+00,1.854783908929345193e+00,-7.157697208200635153e-01
-1.692465113797875231e+00,1.856099506535909383e+00,-7.318919166291021350e-01
-1.689444673059584234e+00,1.857293738891367285e+00,-7.480431978087802580e-01
-1.686409947459554415e+00,1.858366344924572200e+00,-7.642226981736387481e-01
-1.683360946242085321e+00,1.859317069615697093e+00,-7.804295495751725209e-01
-1.680297678694964603e+00,1.860145664010092181e+00,-7.966628819437693299e-01
-1.677220154149435372e+00,1.860851885231846969e+00,-8.129218233307470287e-01
-1.674128381980171998e+00,1.861435496497062525e+00,-8.292054999504822055e-01
-1.671022371605247914e+00,1.861896267126836202e+00,-8.455130362226321861e-01
-1.667902132486109634e+00,1.862233972559947492e+00,-8.618435548144461888e-01
-1.664767674127547004e+00,1.862448394365257665e+00,-8.781961766831622995e-01
-1.661619006077662997e+00,1.862539320253813191e+00,-8.945700211184892670e-01
-1.658456137927847962e+00,1.862506544090657190e+00,-9.109642057851742303e-01
-1.655279079312744983e+00,1.862349865906339552e+00,-9.273778467656500490e-01
-1.652087839910226785e+00,1.862069091908144847e+00,-9.438100586027619032e-01
-1.648882429441361985e+00,1.861664034491014474e+00,-9.602599543425690554e-01
-1.645662857670386225e+00,1.861134512248175277e+00,-9.767266455772254385e-01
-1.642429134404673974e+00,1.860480349981474379e+00,-9.932092424879326309e-01
-1.639181269494706994e+00,1.859701378711413833e+00,-1.009706853887959221e+00
-1.635919272834044813e+00,1.858797435686889488e+00,-1.026218587265735449e+00
-1.632643154359294968e+00,1.857768364394631444e+00,-1.042743548828009237e+00
-1.629352924050083029e+00,1.856614014568348070e+00,-1.059280843543072503e+00
-1.626048591929020626e+00,1.855334242197566930e+00,-1.075829575184044762e+00
-1.622730168061676137e+00,1.853928909536179503e+00,-1.092388846372221778e+00
-1.619397662556544715e+00,1.852397885110687037e+00,-1.108957758620479739e+00
-1.616051085565016310e+00,1.850741043728143520e+00,-1.125535412376736266e+00
-1.612690447281344142e+00,1.848958266483801793e+00,-1.142120907067469826e+00
-1.609315757942615832e+00,1.847049440768454120e+00,-1.158713341141286435e+00
-1.605927027828719655e+00,1.845014460275476553e+00,-1.175311812112538323e+00
-1.602524267262315893e+00,1.842853225007569096e+00,-1.191915416604993005e+00
-1.599107486608803308e+00,1.840565641283194553e+00,-1.208523250395544979e+00
-1.595676696276288054e+00,1.838151621742712960e+00,-1.225134408457974278e+00
-1.592231906715552814e+00,1.835611085354220906e+00,-1.241747985006745880e+00
-1.588773128420023273e+00,1.832943957419079339e+00,-1.258363073540848864e+00
-1.585300371925738139e+00,1.830150169577143160e+00,-1.274978766887673531e+00
-1.581813647811316725e+00,1.827229659811687501e+00,-1.291594157246925167e+00
-1.578312966697924535e+00,1.824182372454028256e+00,-1.308208336234567115e+00
-1.574798339249243950e+00,1.821008258187842621e+00,-1.324820394926803591e+00
-1.571269776171439592e+00,1.817707274053181665e+00,-1.341429423904084040e+00
-1.567727288213125902e+00,1.814279383450183136e+00,-1.358034513295137469e+00
-1.564170886165336283e+00,1.810724556142473851e+00,-1.374634752821032757e+00
-1.560600580861487785e+00,1.807042768260276322e+00,-1.391229231839263836e+00
-1.557016383177350249e+00,1.803234002303202965e+00,-1.407817039387849745e+00
-1.553418304031009889e+00,1.799298247142747886e+00,-1.424397264229459337e+00
-1.549806354382841089e+00,1.795235498024478904e+00,-1.440968994895551081e+00
-1.546180545235468884e+00,1.791045756569914937e+00,-1.457531319730527519e+00
-1.542540887633735647e+00,1.786729030778107852e+00,-1.474083326935899052e+00
-1.538887392664670672e+00,1.782285335026914330e+00,-1.490624104614466816e+00
-1.535220071457452651e+00,1.777714690073962212e+00,-1.507152740814502234e+00
-1.531538935183378580e+00,1.773017123057313960e+00,-1.523668323573943217e+00
-1.527843995055827575e+00,1.768192667495823933e+00,-1.540169940964587258e+00
-1.524135262330227780e+00,1.763241363289189234e+00,-1.556656681136291631e+00
-1.520412748304023065e+00,1.758163256717699019e+00,-1.573127632361169814e+00
-1.516676464316635498e+00,1.752958400441671838e+00,-1.589581883077787472e+00
-1.512926421749435368e+00,1.747626853500594768e+00,-1.606018521935354881e+00
-1.509162632025702111e+00,1.742168681311953682e+00,-1.622436637837910700e+00
-1.505385106610591661e+00,1.736583955669761536e+00,-1.638835319988498851e+00
-1.501593857011102040e+00,1.730872754742772690e+00,-1.655213657933334304e+00
-1.497788894776036939e+00,1.725035163072406785e+00,-1.671570741605955757e+00
-1.493970231495970857e+00,1.719071271570353332e+00,-1.687905661371366328e+00
-1.490137878803214910e+00,1.712981177515882969e+00,-1.704217508070151599e+00
-1.486291848371779301e+00,1.706764984552845643e+00,-1.720505373062584109e+00
-1.482432151917340457e+00,1.700422802686367252e+00,-1.736768348272702545e+00
-1.478558801197203509e+00,1.693954748279246747e+00,-1.753005526232372269e+00
-1.474671808010264762e+00,1.687360944048040823e+00,-1.769216000125316546e+00
-1.470771184196981274e+00,1.680641519058849509e+00,-1.785398863831121341e+00
-1.466856941639328893e+00,1.673796608722797785e+00,-1.801553211969209700e+00
-1.462929092260769171e+00,1.666826354791212106e+00,-1.817678139942789484e+00
-1.458987648026212947e+00,1.659730905350495389e+00,-1.833772743982759579e+00
-1.455032620941982602e+00,1.652510414816695805e+00,-1.849836121191586580e+00
-1.451064023055776753e+00,1.645165043929777360e+00,-1.865867369587139502e+00
-1.447081866456632504e+00,1.637694959747584278e+00,-1.881865588146487633e+00
-1.443086163274889699e+00,1.630100335639503406e+00,-1.897829876849653985e+00
-1.439076925682152952e+00,1.622381351279825967e+00,-1.913759336723325877e+00
-1.435054165891255895e+00,1.614538192640808445e+00,-1.929653069884517569e+00
-1.431017896156220992e+00,1.606571051985429044e+00,-1.945510179584187593e+00
-1.426968128772228006e+00,1.598480127859845501e+00,-1.961329770250802129e+00
-1.422904876075569147e+00,1.590265625085551804e+00,-1.977110947533847085e+00
-1.418828150443617320e+00,1.581927754751234927e+00,-1.992852818347288446e+00
-1.414737964294785488e+00,1.573466734204330697e+00,-2.008554490912971335e+00
-1.410634330088490485e+00,1.564882787042281453e+00,-2.024215074803961567e+00
-1.406517260325113705e+00,1.556176143103492615e+00,-2.039833680987831244e+00
-1.402386767545963142e+00,1.547347038457995483e+00,-2.055409421869874631e+00
-1.398242864333236524e+00,1.538395715397802954e+00,-2.070941411336260085e+00
-1.394085563309981346e+00,1.529322422426979911e+00,-2.086428764797123137e+00
-1.389914877140058458e+00,1.520127414251401410e+00,-2.101870599229578751e+00
-1.385730818528099872e+00,1.510810951768230437e+00,-2.117266033220669641e+00
-1.381533400219475016e+00,1.501373302055084569e+00,-2.132614187010241302e+00
-1.377322635000246986e+00,1.491814738358917758e+00,-2.147914182533739336e+00
-1.373098535697137468e+00,1.482135540084599912e+00,-2.163165143464931717e+00
-1.368861115177485432e+00,1.472335992783206038e+00,-2.178366195258548021e+00
-1.364610386349208282e+00,1.462416388140008960e+00,-2.193516465192845377e+00
-1.360346362160763656e+00,1.452377023962180935e+00,-2.208615082412081598e+00
-1.356069055601108575e+00,1.442218204166197504e+00,-2.223661177968907054e+00
-1.351778479699661029e+00,1.431940238764954687e+00,-2.238653884866672605e+00
-1.347474647526258451e+00,1.421543443854592859e+00,-2.253592338101643833e+00
-1.343157572191120197e+00,1.411028141601024855e+00,-2.268475674705123346e+00
-1.338827266844807129e+00,1.400394660226180976e+00,-2.283303033785483827e+00
-1.334483744678179429e+00,1.389643333993959340e+00,-2.298073556570101150e+00
-1.330127018922359516e+00,1.378774503195886236e+00,-2.312786386447194253e+00
-1.325757102848689195e+00,1.367788514136494271e+00,-2.327440669007562413e+00
-1.321374009768691238e+00,1.356685719118403854e+00,-2.342035552086222161e+00
-1.316977753034026977e+00,1.345466476427127356e+00,-2.356570185803942064e+00
-1.312568346036456779e+00,1.334131150315577052e+00,-2.371043722608672244e+00
-1.308145802207798969e+00,1.322680110988295965e+00,-2.385455317316859780e+00
-1.303710135019889194e+00,1.311113734585398261e+00,-2.399804127154670397e+00
-1.299261357984538900e+00,1.299432403166227434e+00,-2.414089311799079596e+00
-1.294799484653494925e+00,1.287636504692734052e+00,-2.428310033418864755e+00
-1.290324528618395750e+00,1.275726433012564831e+00,-2.442465456715478211e+00
-1.285836503510735529e+00,1.263702587841873726e+00,-2.456554748963799550e+00
-1.281335423001816132e+00,1.251565374747855897e+00,-2.470577080052774210e+00
-1.276821300802708725e+00,1.239315205130992803e+00,-2.484531622525928629e+00
-1.272294150664213586e+00,1.226952496207024179e+00,-2.498417551621759713e+00
-1.267753986376814579e+00,1.214477670988642455e+00,-2.512234045314007513e+00
-1.263200821770639415e+00,1.201891158266905402e+00,-2.525980284351791116e+00
-1.258634670715417014e+00,1.189193392592374998e+00,-2.539655452299622418e+00
-1.254055547120435987e+00,1.176384814255980071e+00,-2.553258735577290661e+00
-1.249463464934500223e+00,1.163465869269604047e+00,-2.566789323499607089e+00
-1.244858438145888702e+00,1.150437009346399586e+00,-2.580246408316021700e+00
-1.240240480782312193e+00,1.137298691880828994e+00,-2.593629185250103220e+00
-1.235609606910868852e+00,1.124051379928432182e+00,-2.606936852538878746e+00
-1.230965830638003800e+00,1.110695542185327289e+00,-2.620168611472032616e+00
-1.226309166109465165e+00,1.097231652967436855e+00,-2.633323666430968046e+00
-1.221639627510261006e+00,1.083660192189446203e+00,-2.646401224927719120e+00
-1.216957229064614676e+00,1.069981645343497378e+00,-2.659400497643723327e+00
-1.212261985035924861e+00,1.056196503477610626e+00,-2.672320698468440447e+00
-1.207553909726718722e+00,1.042305263173842755e+00,-2.685161044537828889e+00
-1.202833017478610156e+00,1.028308426526181041e+00,-2.697920756272664367e+00
-1.198099322672255607e+00,1.014206501118170012e+00,-2.710599057416711144e+00
-1.193352839727310544e+00,1.000000000000282441e+00,-2.723195175074733410e+00
-1.188593583102384832e+00,9.856894416670184400e-01,-2.735708339750357876e+00
-1.183821567295000321e+00,9.712753500337543144e-01,-2.748137785383765408e+00
-1.179036806841544216e+00,9.567582544133210742e-01,-2.760482749389239654e+00
-1.174239316317226001e+00,9.421386894923374777e-01,-2.772742472692538040e+00
-1.169429110336035027e+00,9.274171953072728458e-01,-2.784916199768104672e+00
-1.164606203550692776e+00,9.125943172202626297e-01,-2.797003178676124246e+00
-1.159770610652608891e+00,8.976706058946625211e-01,-2.809002661099398779e+00
-1.154922346371838771e+00,8.826466172703568702e-01,-2.820913902380060900e+00
-1.150061425477034938e+00,8.675229125388059792e-01,-2.832736161556116627e+00
-1.145187862775406851e+00,8.523000581178452606e-01,-2.844468701397810051e+00
-1.140301673112671166e+00,8.369786256262362611e-01,-2.856110788443824156e+00
-1.135402871373009326e+00,8.215591918579659980e-01,-2.867661693037295567e+00
-1.130491472479020709e+00,8.060423387562974940e-01,-2.879120689361656993e+00
-1.125567491391677555e+00,7.904286533875783949e-01,-2.890487055476300249e+00
-1.120630943110280775e+00,7.747187279147974559e-01,-2.901760073352055880e+00
-1.115681842672412660e+00,7.589131595709033284e-01,-2.912939028906491590e+00
-1.110720205153891582e+00,7.430125506318765449e-01,-2.924023212039027264e+00
-1.105746045668725364e+00,7.270175083895618062e-01,-2.935011916665864806e+00
-1.100759379369065760e+00,7.109286451242576854e-01,-2.945904440754721687e+00
-1.095760221445165605e+00,6.947465780770714083e-01,-2.956700086359389967e+00
-1.090748587125324853e+00,6.784719294220309393e-01,-2.967398159654089707e+00
-1.085724491675851278e+00,6.621053262379652526e-01,-2.977997970967643404e+00
-1.080687950401010289e+00,6.456474004801476818e-01,-2.988498834817440830e+00
-1.075638978642980970e+00,6.290987889517052345e-01,-2.998900069943222668e+00
-1.070577591781807003e+00,6.124601332747950933e-01,-3.009200999340658544e+00
-1.065503805235349821e+00,5.957320798615530766e-01,-3.019400950294726105e+00
-1.060417634459243752e+00,5.789152798848097303e-01,-3.029499254412891585e+00
-1.055319094946846725e+00,5.620103892485788233e-01,-3.039495247658091426e+00
-1.050208202229194310e+00,5.450180685583217999e-01,-3.049388270381502064e+00
-1.045084971874951973e+00,5.279389830909813064e-01,-3.059177667355109431e+00
-1.039949419490368454e+00,5.107738027647980017e-01,-3.068862787804074177e+00
-1.034801560719226243e+00,4.935232021088974408e-01,-3.078442985438880619e+00
-1.029641411242796734e+00,4.761878602326640175e-01,-3.087917618487282301e+00
-1.024468986779788704e+00,4.587684607948873117e-01,-3.097286049726037493e+00
-1.019284303086305910e+00,4.412656919726957727e-01,-3.106547646512419991e+00
-1.014087375955792680e+00,4.236802464302726334e-01,-3.115701780815534505e+00
-1.008878221218991289e+00,4.060128212873559961e-01,-3.124747829247395359e+00
-1.003656854743889548e+00,3.882641180875248121e-01,-3.133685173093805787e+00
-9.984232924356756245e-01,3.704348427662737531e-01,-3.142513198345004533e+00
-9.931775502366877451e-01,3.525257056188799698e-01,-3.151231295726102388e+00
-9.879196441263671247e-01,3.345374212680538029e-01,-3.159838860727287368e+00
-9.826495901212072281e-01,3.164707086313901518e-01,-3.168335293633818939e+00
-9.773674042747059199e-01,2.983262908886092357e-01,-3.176719999555785101e+00
-9.720731026773177241e-01,2.801048954485919618e-01,-3.184992388457638324e+00
-9.667667014564035322e-01,2.618072539162167311e-01,-3.193151875187509425e+00
-9.614482167761825293e-01,2.434341020589916305e-01,-3.201197879506280763e+00
-9.561176648376800147e-01,2.249861797734887259e-01,-3.209129826116444484e+00
-9.507750618786821040e-01,2.064642310515784895e-01,-3.216947144690715632e+00
-9.454204241736844372e-01,1.878690039464701311e-01,-3.224649269900414783e+00
-9.400537680338418856e-01,1.692012505385544763e-01,-3.232235641443625518e+00
-9.346751098069195907e-01,1.504617269010556924e-01,-3.239705704073108095e+00
-9.292844658772435595e-01,1.316511930654923612e-01,-3.247058907623973312e+00
-9.238818526656494834e-01,1.127704129869436939e-01,-3.254294707041130774e+00
-9.184672866294351090e-01,9.382015450913364085e-02,-3.261412562406480919e+00
-9.130407842623059489e-01,7.480118932932321163e-02,-3.268411938965884111e+00
-9.076023620943309833e-01,5.571429296302344431e-02,-3.275292307155867721e+00
-9.021520366918873712e-01,3.656024470851843011e-02,-3.282053142630109832e+00
-8.966898246576100462e-01,1.733982761121184712e-02,-3.288693926285666258e+00
-8.912157426303446428e-01,-1.946171572207950305e-03,-3.295214144288950209e+00
-8.857298072850955384e-01,-2.129696240978259242e-02,-3.301613288101473920e+00
-8.802320353329715630e-01,-4.071175083047091914e-02,-3.307890854505334932e+00
-8.747224435211408133e-01,-6.018973916051516965e-02,-3.314046345628455903e+00
-8.692010486327742536e-01,-7.973012615997882024e-02,-3.320079268969571729e+00
-8.636678674869996408e-01,-9.933210705945408336e-02,-3.325989137422965314e+00
-8.581229169388447930e-01,-1.189948735969401927e-01,-3.331775469302953763e+00
-8.525662138791921807e-01,-1.387176140548895265e-01,-3.337437788368112557e+00
-8.469977752347223054e-01,-1.584995132974214294e-01,-3.342975623845251043e+00
-8.414176179678644063e-01,-1.783397528076957894e-01,-3.348388510453134348e+00
-8.358257590767466105e-01,-1.982375107254531477e-01,-3.353675988425931731e+00
-8.302222155951393123e-01,-2.181919618847144582e-01,-3.358837603536427796e+00
-8.246070045924094316e-01,-2.382022778516382777e-01,-3.363872907118956146e+00
-8.189801431734620163e-01,-2.582676269625381882e-01,-3.368781456092085680e+00
-8.133416484786932799e-01,-2.783871743620505712e-01,-3.373562812981030667e+00
-8.076915376839367555e-01,-2.985600820414616718e-01,-3.378216545939811244e+00
-8.020298280004088953e-01,-3.187855088771808232e-01,-3.382742228773140347e+00
-7.963565366746588881e-01,-3.390626106693695463e-01,-3.387139440958053083e+00
-7.906716809885167008e-01,-3.593905401807114819e-01,-3.391407767665262529e+00
-7.849752782590386779e-01,-3.797684471753338675e-01,-3.395546799780253977e+00
-7.792673458384550278e-01,-4.001954784578719004e-01,-3.399556133924104717e+00
-7.735479011141179750e-01,-4.206707779126748203e-01,-3.403435372474046705e+00
-7.678169615084490252e-01,-4.411934865431523245e-01,-3.407184123583741897e+00
-7.620745444788821210e-01,-4.617627425112618700e-01,-3.410802001203303124e+00
-7.563206675178165694e-01,-4.823776811771304796e-01,-3.414288625099033414e+00
-7.505553481525595316e-01,-5.030374351388100518e-01,-3.417643620872891752e+00
-7.447786039452731766e-01,-5.237411342721727259e-01,-3.420866619981690615e+00
-7.389904524929226115e-01,-5.444879057709280934e-01,-3.423957259756015947e+00
-7.331909114272215922e-01,-5.652768741867765234e-01,-3.426915183418870470e+00
-7.273799984145763453e-01,-5.861071614696871102e-01,-3.429740040104041654e+00
-7.215577311560369411e-01,-6.069778870083006872e-01,-3.432431484874190808e+00
-7.157241273872385623e-01,-6.278881676704581860e-01,-3.434989178738668603e+00
-7.098792048783496567e-01,-6.488371178438482323e-01,-3.437412788671043717e+00
-7.040229814340192016e-01,-6.698238494767773110e-01,-3.439701987626358815e+00
-6.981554748933183063e-01,-6.908474721190537293e-01,-3.441856454558100964e+00
-6.922767031296899187e-01,-7.119070929629918165e-01,-3.443875874434893625e+00
-6.863866840508918710e-01,-7.330018168845261473e-01,-3.445759938256904853e+00
-6.804854355989445880e-01,-7.541307464844410058e-01,-3.447508343071969961e+00
-6.745729757500731338e-01,-7.752929821297056545e-01,-3.449120791991439283e+00
-6.686493225146563635e-01,-7.964876219949218461e-01,-3.450596994205727519e+00
-6.627144939371687471e-01,-8.177137621038742532e-01,-3.451936664999589954e+00
-6.567685080961279676e-01,-8.389704963711864805e-01,-3.453139525767106477e+00
-6.508113831040388542e-01,-8.602569166440785509e-01,-3.454205304026378709e+00
-6.448431371073352070e-01,-8.815721127442257554e-01,-3.455133733433947807e+00
-6.388637882863312800e-01,-9.029151725097102066e-01,-3.455924553798908505e+00
-6.328733548551591648e-01,-9.242851818370798611e-01,-3.456577511096747823e+00
-6.268718550617191632e-01,-9.456812247234862578e-01,-3.457092357482892897e+00
-6.208593071876190583e-01,-9.671023833089281707e-01,-3.457468851305960822e+00
-6.148357295481234885e-01,-9.885477379185778624e-01,-3.457706757120724728e+00
-6.088011404920941061e-01,-1.010016367105196045e+00,-3.457805845700789416e+00
-6.027555584019362866e-01,-1.031507347691635657e+00,-3.457765894050968569e+00
-5.966990016935407315e-01,-1.053019754813427689e+00,-3.457586685419373751e+00
-5.906314888162301768e-01,-1.074552661961446720e+00,-3.457268009309212520e+00
-5.845530382527005520e-01,-1.096105141024663610e+00,-3.456809661490289454e+00
-5.784636685189668004e-01,-1.117676262332968573e+00,-3.456211444010211853e+00
-5.723633981643052593e-01,-1.139265094700072201e+00,-3.455473165205306785e+00
-5.662522457711971491e-01,-1.160870705466485520e+00,-3.454594639711237036e+00
-5.601302299552731734e-01,-1.182492160542561344e+00,-3.453575688473321303e+00
-5.539973693652533449e-01,-1.204128524451618887e+00,-3.452416138756566166e+00
-5.478536826828963591e-01,-1.225778860373124113e+00,-3.451115824155391199e+00
-5.416991886229372000e-01,-1.247442230185942025e+00,-3.449674584603064087e+00
-5.355339059330316287e-01,-1.269117694511651573e+00,-3.448092266380834658e+00
-5.293578533937003394e-01,-1.290804312757922068e+00,-3.446368722126774031e+00
-5.231710498182694513e-01,-1.312501143161948658e+00,-3.444503810844310898e+00
-5.169735140528165518e-01,-1.334207242833944873e+00,-3.442497397910475598e+00
-5.107652649761096342e-01,-1.355921667800693120e+00,-3.440349355083838212e+00
-5.045463214995528078e-01,-1.377643473049143807e+00,-3.438059560512152668e+00
-4.983167025671265682e-01,-1.399371712570072201e+00,-3.435627898739696207e+00
-4.920764271553297320e-01,-1.421105439401778137e+00,-3.433054260714315742e+00
-4.858255142731240372e-01,-1.442843705673836796e+00,-3.430338543794165140e+00
-4.795639829618741912e-01,-1.464585562650893458e+00,-3.427480651754148067e+00
-4.732918522952895279e-01,-1.486330060776501538e+00,-3.424480494792057073e+00
-4.670091413793688306e-01,-1.508076249716999939e+00,-3.421337989534411594e+00
-4.607158693523389359e-01,-1.529823178405431250e+00,-3.418053059041997521e+00
-4.544120553845977240e-01,-1.551569895085498141e+00,-3.414625632815097678e+00
-4.480977186786553323e-01,-1.573315447355547958e+00,-3.411055646798426988e+00
-4.417728784690775901e-01,-1.595058882212596618e+00,-3.407343043385762993e+00
-4.354375540224234009e-01,-1.616799246096382037e+00,-3.403487771424273500e+00
-4.290917646371912308e-01,-1.638535584933441314e+00,-3.399489786218542697e+00
-4.227355296437538823e-01,-1.660266944181219229e+00,-3.395349049534291730e+00
-4.163688684043074795e-01,-1.681992368872199384e+00,-3.391065529601799078e+00
-4.099918003128050215e-01,-1.703710903658057108e+00,-3.386639201119017173e+00
-4.036043447949015373e-01,-1.725421592853831676e+00,-3.382070045254383039e+00
-3.972065213078972978e-01,-1.747123480482117852e+00,-3.377358049649328731e+00
-3.907983493406681497e-01,-1.768815610317272968e+00,-3.372503208420490228e+00
-3.843798484136201066e-01,-1.790497025929638664e+00,-3.367505522161603260e+00
-3.779510380786181289e-01,-1.812166770729770837e+00,-3.362364997945105571e+00
-3.715119379189348314e-01,-1.833823888012683589e+00,-3.357081649323430117e+00
-3.650625675491850908e-01,-1.855467421002098050e+00,-3.351655496329997597e+00
-3.586029466152705902e-01,-1.877096412894694977e+00,-3.346086565479898134e+00
-3.521330947943164258e-01,-1.898709906904378908e+00,-3.340374889770280298e+00
-3.456530317946126529e-01,-1.920306946306529872e+00,-3.334520508680427486e+00
-3.391627773555553338e-01,-1.941886574482267536e+00,-3.328523468171530109e+00
-3.326623512475851419e-01,-1.963447834962702920e+00,-3.322383820686159783e+00
-3.261517732721280760e-01,-1.984989771473190778e+00,-3.316101625147434451e+00
-3.196310632615330105e-01,-2.006511427977572648e+00,-3.309676946957886390e+00
-3.131002410790135193e-01,-2.028011848722409027e+00,-3.303109857998015819e+00
-3.065593266185865917e-01,-2.049490078281203331e+00,-3.296400436624548735e+00
-3.000083398050112371e-01,-2.070945161598610529e+00,-3.289548767668394103e+00
-2.934473005937311973e-01,-2.092376144034629792e+00,-3.282554942432283518e+00
-2.868762289708081670e-01,-2.113782071408782048e+00,-3.275419058688126217e+00
-2.802951449528671146e-01,-2.135161990044261771e+00,-3.268141220674046554e+00
-2.737040685870304468e-01,-2.156514946812079891e+00,-3.260721539091123944e+00
-2.671030199508599434e-01,-2.177839989175161861e+00,-3.253160131099831709e+00
-2.604920191522939188e-01,-2.199136165232442153e+00,-3.245457120316167732e+00
-2.538710863295887687e-01,-2.220402523762915248e+00,-3.237612636807490230e+00
-2.472402416512530510e-01,-2.241638114269664417e+00,-3.229626817088040891e+00
-2.405995053159909747e-01,-2.262841987023850532e+00,-3.221499804114175802e+00
-2.339488975526349823e-01,-2.284013193108679118e+00,-3.213231747279296169e+00
-2.272884386200905438e-01,-2.305150784463317226e+00,-3.204822802408461069e+00
-2.206181488072712360e-01,-2.326253813926779213e+00,-3.196273131752715102e+00
-2.139380484330359045e-01,-2.347321335281770338e+00,-3.187582903983113614e+00
-2.072481578461295160e-01,-2.368352403298492170e+00,-3.178752294184439720e+00
-2.005484974251185992e-01,-2.389346073778391144e+00,-3.169781483848622905e+00
-1.938390875783311262e-01,-2.410301403597875147e+00,-3.160670660867863191e+00
-1.871199487437921194e-01,-2.431217450751975484e+00,-3.151420019527451988e+00
-1.803911013891634496e-01,-2.452093274397947997e+00,-3.142029760498290969e+00
-1.736525660116835790e-01,-2.472927934898837776e+00,-3.132500090829112516e+00
-1.669043631380973391e-01,-2.493720493866979471e+00,-3.122831223938411505e+00
-1.601465133246013917e-01,-2.514470014207443427e+00,-3.113023379606063124e+00
-1.533790371567793631e-01,-2.535175560161415653e+00,-3.103076783964652030e+00
-1.466019552495362865e-01,-2.555836197349529382e+00,-3.092991669490505302e+00
-1.398152882470391489e-01,-2.576450992815122909e+00,-3.082768274994425184e+00
-1.330190568226534698e-01,-2.597019015067435710e+00,-3.072406845612121185e+00
-1.262132816788779088e-01,-2.617539334124739270e+00,-3.061907632794361511e+00
-1.193979835472833706e-01,-2.638011021557392866e+00,-3.051270894296806535e+00
-1.125731831884509981e-01,-2.658433150530835842e+00,-3.040496894169566477e+00
-1.057389013919064064e-01,-2.678804795848497289e+00,-3.029585902746455339e+00
-9.889515897605576089e-02,-2.699125033994640877e+00,-3.018538196633954396e+00
-9.204197678812625627e-02,-2.719392943177122657e+00,-3.007354058699875488e+00
-8.517937570410079318e-02,-2.739607603370070699e+00,-2.996033778061743202e+00
-7.830737662864943605e-02,-2.759768096356496336e+00,-2.984577650074874189e+00
-7.142600049507523419e-02,-2.779873505770796616e+00,-2.972985976320166479e+00
-6.453526826524259852e-02,-2.799922917141199896e+00,-2.961259064591606815e+00
-5.763520092951660012e-02,-2.819915417932100432e+00,-2.949397228883472888e+00
-5.072581950670027734e-02,-2.839850097586316569e+00,-2.937400789377257126e+00
-4.380714504396528153e-02,-2.859726047567255236e+00,-2.925270072428294732e+00
-3.687919861679715000e-02,-2.879542361400977857e+00,-2.913005410552107044e+00
-2.994200132891973801e-02,-2.899298134718178765e+00,-2.900607142410457584e+00
-2.299557431223955839e-02,-2.918992465296059713e+00,-2.888075612797112779e+00
-1.603993872677908147e-02,-2.938624453100104450e+00,-2.875411172623326017e+00
-9.075115760608940332e-03,-2.958193200325762717e+00,-2.862614178903030826e+00
-2.101126629789103716e-03,-2.977697811440012554e+00,-2.849684994737748944e+00
4.882007421701279638e-03,-2.997137393222834678e+00,-2.836623989301215509e+00
1.187426512202416351e-02,-3.016511054808570957e+00,-2.823431537823718696e+00
1.887562517155038505e-02,-3.035817907727173637e+00,-2.810108021576156911e+00
2.588606624292104710e-02,-3.055057065945343542e+00,-2.796653827853814889e+00
3.290556698112055700e-02,-3.074227645907561701e+00,-2.783069349959859107e+00
3.993410600352832740e-02,-3.093328766576995292e+00,-2.769354987188548112e+00
4.697166189999796987e-02,-3.112359549476296117e+00,-2.755511144808167057e+00
5.401821323291359361e-02,-3.131319118728272954e+00,-2.741538234043685129e+00
6.107373853725822643e-02,-3.150206601096448011e+00,-2.727436672059127432e+00
6.813821632067612599e-02,-3.169021126025486801e+00,-2.713206881939675963e+00
7.521162506354421573e-02,-3.187761825681509897e+00,-2.698849292673495270e+00
8.229394321903317489e-02,-3.206427834992268799e+00,-2.684364339133274324e+00
8.938514921317287920e-02,-3.225018291687203220e+00,-2.669752462057503273e+00
9.648522144492012453e-02,-3.243532336337356714e+00,-2.655014108031469533e+00
1.035941382862232973e-01,-3.261969112395175063e+00,-2.640149729467986095e+00
1.107118780820900011e-01,-3.280327766234154119e+00,-2.625159784587843159e+00
1.178384191506497702e-01,-3.298607447188365960e+00,-2.610044737399992876e+00
1.249737397832225427e-01,-3.316807307591836285e+00,-2.594805057681461413e+00
1.321178182443835669e-01,-3.334926502817792127e+00,-2.579441220956993686e+00
1.392706327720318049e-01,-3.352964191317759024e+00,-2.563953708478429849e+00
1.464321615774534513e-01,-3.370919534660518302e+00,-2.548343007203810906e+00
1.536023828453904616e-01,-3.388791697570925798e+00,-2.532609609776226733e+00
1.607812747341033355e-01,-3.406579847968571162e+00,-2.516754014502390557e+00
1.679688153754453905e-01,-3.424283157006297262e+00,-2.500776725330950967e+00
1.751649828749190230e-01,-3.441900799108569053e+00,-2.484678251830548135e+00
1.823697553117511472e-01,-3.459431952009682121e+00,-2.468459109167596921e+00
1.895831107389531478e-01,-3.476875796791828233e+00,-2.452119818083819069e+00
1.968050271833970688e-01,-3.494231517922995689e+00,-2.435660904873511168e+00
2.040354826458700976e-01,-3.511498303294718237e+00,-2.419082901360549709e+00
2.112744551011535021e-01,-3.528675344259657898e+00,-2.402386344875150126e+00
2.185219224980793074e-01,-3.545761835669034578e+00,-2.385571778230357154e+00
2.257778627596055410e-01,-3.562756975909885160e+00,-2.368639749698286945e+00
2.330422537828806262e-01,-3.579659966942161820e+00,-2.351590812986113388e+00
2.403150734393095511e-01,-3.596470014335666932e+00,-2.334425527211800411e+00
2.475962995746209538e-01,-3.613186327306808554e+00,-2.317144456879584702e+00
2.548859100089395646e-01,-3.629808118755200042e+00,-2.299748171855205303e+00
2.621838825368467130e-01,-3.646334605300076692e+00,-2.282237247340882735e+00
2.694901949274514652e-01,-3.662765007316544086e+00,-2.264612263850056539e+00
2.768048249244598469e-01,-3.679098548971655003e+00,-2.246873807181866578e+00
2.841277502462414284e-01,-3.695334458260297605e+00,-2.229022468395395418e+00
2.914589485858941065e-01,-3.711471967040918862e+00,-2.211058843783661576e+00
2.987983976113174345e-01,-3.727510311071062343e+00,-2.192983534847376070e+00
3.061460749652767377e-01,-3.743448730042716832e+00,-2.174797148268443170e+00
3.135019582654722248e-01,-3.759286467617493077e+00,-2.156500295883240437e+00
3.208660251046079326e-01,-3.775022771461611359e+00,-2.138093594655639862e+00
3.282382530504577844e-01,-3.790656893280698547e+00,-2.119577666649802516e+00
3.356186196459381987e-01,-3.806188088854401297e+00,-2.100953139002731618e+00
3.430071024091733145e-01,-3.821615618070808740e+00,-2.082220643896592893e+00
3.504036788335618824e-01,-3.836938744960678882e+00,-2.063380818530795580e+00
3.578083263878506504e-01,-3.852156737731479375e+00,-2.044434305093849158e+00
3.652210225161964252e-01,-3.867268868801224446e+00,-2.025381750734974506e+00
3.726417446382447318e-01,-3.882274414832130205e+00,-2.006223807535502779e+00
3.800704701491863235e-01,-3.897172656764048781e+00,-1.986961132480028480e+00
3.875071764198374513e-01,-3.911962879847727503e+00,-1.967594387427347824e+00
3.949518407966989275e-01,-3.926644373677849131e+00,-1.948124239081161280e+00
4.024044406020333420e-01,-3.941216432225883359e+00,-1.928551358960558959e+00
4.098649531339275121e-01,-3.955678353872716269e+00,-1.908876423370276409e+00
4.173333556663690325e-01,-3.970029441441096818e+00,-1.889100113370735912e+00
4.248096254493066160e-01,-3.984269002227854628e+00,-1.869223114747858183e+00
4.322937397087258105e-01,-3.998396348035925030e+00,-1.849246117982663140e+00
4.397856756467184436e-01,-4.012410795206153402e+00,-1.829169818220647947e+00
4.472854104415462939e-01,-4.026311664648895672e+00,-1.808994915240952794e+00
4.547929212477179184e-01,-4.040098281875398101e+00,-1.788722113425309734e+00
4.623081851960518796e-01,-4.053769977028966132e+00,-1.768352121726775916e+00
4.698311793937531844e-01,-4.067326084915925399e+00,-1.747885653638262760e+00
4.773618809244751793e-01,-4.080765945036344711e+00,-1.727323427160847524e+00
4.849002668483944900e-01,-4.094088901614562737e+00,-1.706666164771879490e+00
4.924463142022817430e-01,-4.107294303629480225e+00,-1.685914593392879413e+00
4.999999999995683453e-01,-4.120381504844631948e+00,-1.665069444357231587e+00
5.075613012304155403e-01,-4.133349863838041927e+00,-1.644131453377674745e+00
5.151301948617891258e-01,-4.146198744031851291e+00,-1.623101360513585778e+00
5.227066578375278993e-01,-4.158927513721713431e+00,-1.601979910138070506e+00
5.302906670784098830e-01,-4.171535546105971548e+00,-1.580767850904845284e+00
5.378821994822278185e-01,-4.184022219314598168e+00,-1.559465935714927864e+00
5.454812319238581120e-01,-4.196386916437923276e+00,-1.538074921683131535e+00
5.530877412553304451e-01,-4.208629025555098657e+00,-1.516595570104360968e+00
5.607017043058978301e-01,-4.220747939762364176e+00,-1.495028646419717777e+00
5.683230978821079971e-01,-4.232743057201058257e+00,-1.473374920182416670e+00
5.759518987678743374e-01,-4.244613781085397441e+00,-1.451635165023506424e+00
5.835880837245461805e-01,-4.256359519730025909e+00,-1.429810158617409011e+00
5.912316294909812919e-01,-4.267979686577322518e+00,-1.407900682647267532e+00
5.988825127836115980e-01,-4.279473700224460053e+00,-1.385907522770111422e+00
6.065407102965215680e-01,-4.290840984450249529e+00,-1.363831468581840012e+00
6.142061987015122737e-01,-4.302080968241709158e+00,-1.341673313582022242e+00
6.218789546481769959e-01,-4.313193085820415718e+00,-1.319433855138515854e+00
6.295589547639718342e-01,-4.324176776668605449e+00,-1.297113894451913163e+00
6.372461756542815436e-01,-4.335031485555022712e+00,-1.274714236519804311e+00
6.449405939025015799e-01,-4.345756662560532391e+00,-1.252235690100873544e+00
6.526421860700956090e-01,-4.356351763103474717e+00,-1.229679067678812299e+00
6.603509286966816605e-01,-4.366816247964782960e+00,-1.207045185426072420e+00
6.680667983000930787e-01,-4.377149583312837322e+00,-1.184334863167442631e+00
6.757897713764496883e-01,-4.387351240728076363e+00,-1.161548924343454914e+00
6.835198244002377299e-01,-4.397420697227362396e+00,-1.138688195973635464e+00
6.912569338243761408e-01,-4.407357435288069780e+00,-1.115753508619581780e+00
6.990010760802866097e-01,-4.417160942871958262e+00,-1.092745696347879436e+00
7.067522275779690721e-01,-4.426830713448739019e+00,-1.069665596692861653e+00
7.145103647060715435e-01,-4.436366246019434634e+00,-1.046514050619204994e+00
7.222754638319639486e-01,-4.445767045139453089e+00,-1.023291902484372740e+00
7.300475013018076220e-01,-4.455032620941400623e+00,-1.000000000000898615e+00
7.378264534406260289e-01,-4.464162489157649460e+00,-9.766391941985186342e-01
7.456122965523852564e-01,-4.473156171142640858e+00,-9.532103393861538487e-01
7.534050069200554089e-01,-4.482013193894917258e+00,-9.297142931137371002e-01
7.612045608056893231e-01,-4.490733090078899536e+00,-9.061519161338987827e-01
7.690109344504927336e-01,-4.499315398046401349e+00,-8.825240723634997231e-01
7.768241040748988802e-01,-4.507759661857870803e+00,-8.588316288450246194e-01
7.846440458786362315e-01,-4.516065431303377231e+00,-8.350754557078293727e-01
7.924707360408077550e-01,-4.524232261923315512e+00,-8.112564261292498635e-01
8.003041507199569748e-01,-4.532259715028860825e+00,-7.873754162955718394e-01
8.081442660541441336e-01,-4.540147357722146282e+00,-7.634333053628581389e-01
8.159910581610195779e-01,-4.547894762916160794e+00,-7.394309754176529026e-01
8.238445031378935912e-01,-4.555501509354397349e+00,-7.153693114375381246e-01
8.317045770618078926e-01,-4.562967181630208202e+00,-6.912492012515700779e-01
8.395712559896169047e-01,-4.570291370205906922e+00,-6.670715355005782943e-01
8.474445159580518139e-01,-4.577473671431585345e+00,-6.428372075973419753e-01
8.553243329837976194e-01,-4.584513687563656070e+00,-6.185471136866386166e-01
8.632106830635640771e-01,-4.591411026783124960e+00,-5.942021526051681768e-01
8.711035421741618601e-01,-4.598165303213592736e+00,-5.698032258413562312e-01
8.790028862725730585e-01,-4.604776136938963482e+00,-5.453512374950357788e-01
8.869086912960261193e-01,-4.611243154020892909e+00,-5.208470942370133638e-01
8.948209331620676776e-01,-4.617565986515948850e+00,-4.962917052685162922e-01
9.027395877686360537e-01,-4.623744272492494645e+00,-4.716859822805281599e-01
9.106646309941369699e-01,-4.629777656047297185e+00,-4.470308394130075302e-01
9.185960386975138281e-01,-4.635665787321847198e+00,-4.223271932139994744e-01
9.265337867183238707e-01,-4.641408322518400631e+00,-3.975759625986425294e-01
9.344778508768094571e-01,-4.647004923915750041e+00,-3.727780688080592486e-01
9.424282069739733370e-01,-4.652455259884686001e+00,-3.479344353681496083e-01
9.503848307916522575e-01,-4.657759004903206268e+00,-3.230459880482763890e-01
9.583476980925907940e-01,-4.662915839571425636e+00,-2.981136548198697889e-01
9.663167846205130695e-01,-4.667925450626187356e+00,-2.731383658148888727e-01
9.742920661002009153e-01,-4.672787530955425872e+00,-2.481210532842368643e-01
9.822735182375623708e-01,-4.677501779612204480e+00,-2.230626515560467649e-01
9.902611167197116204e-01,-4.682067901828491863e+00,-1.979640969938938622e-01
9.982548372150360505e-01,-4.686485609028644639e+00,-1.728263279549043518e-01
1.006254655373278961e+00,-4.690754618842595036e+00,-1.476502847477851321e-01
1.014260546825605847e+00,-4.694874655118759676e+00,-1.224369095907567179e-01
1.022272487184683776e+00,-4.698845447936653485e+00,-9.718714656941328245e-02
1.030290452044752447e+00,-4.702666733619218498e+00,-7.190194159448917710e-02
1.038314416981699573e+00,-4.706338254744858673e+00,-4.658224235955010090e-02
1.046344357553137039e+00,-4.709859760159185171e+00,-2.122899829860403279e-02
1.054380249298474181e+00,-4.713231004986477402e+00,4.156839456364701084e-03
1.062422067738988618e+00,-4.716451750640832330e+00,2.957431811793394261e-02
1.070469788377910181e+00,-4.719521764837051769e+00,5.502248328585940262e-02
1.078523386700483533e+00,-4.722440821601208150e+00,8.050037898975880013e-02
1.086582838174052545e+00,-4.725208701280937618e+00,1.060070477318619114e-01
1.094648118248130242e+00,-4.727825190555425827e+00,1.315415305298338333e-01
1.102719202354474293e+00,-4.730290082445111288e+00,1.571028669596542526e-01
1.110796065907162955e+00,-4.732603176321088512e+00,1.826900951985711563e-01
1.118878684302669679e+00,-4.734764277914210062e+00,2.083022520681016565e-01
1.126967032919937495e+00,-4.736773199323909722e+00,2.339383730771021630e-01
1.135061087120451617e+00,-4.738629759026713018e+00,2.595974924648880577e-01
1.143160822248321162e+00,-4.740333781884463527e+00,2.852786432444140430e-01
1.151266213630347757e+00,-4.741885099152249872e+00,3.109808572455021736e-01
