gyro_x (deg/s),gyro_y (deg/s),gyro_z (deg/s)
1.186929216969403678e+00,-4.499166503023807273e+00,4.489871378484648901e+00
2.276746701944546647e+00,-8.541718519470400395e+00,8.538996114871570953e+00
3.307538014896354461e+00,-1.216332505578931134e+01,1.220305766678189663e+01
4.306659432116735964e+00,-1.539883373651786158e+01,1.552840254252682151e+01
5.293833647751052141e+00,-1.828117681489580448e+01,1.855413070295313815e+01
6.282917686160394588e+00,-2.084123642906449092e+01,2.131324021625940190e+01
7.283292449080210673e+00,-2.310779581591352994e+01,2.383361541198322087e+01
8.300943286574296920e+00,-2.510756495133943389e+01,2.613889176658044278e+01
9.339301203509794647e+00,-2.686523973028841894e+01,2.824917839506585082e+01
1.039990127130486286e+01,-2.840358597168498633e+01,3.018167322814504772e+01
1.148288849903283193e+01,-2.974354894056148879e+01,3.195116851649038736e+01
1.258741003871575259e+01,-3.090435980580166841e+01,3.357047009235395763e+01
1.371191710605423708e+01,-3.190365438426295341e+01,3.505074436388250092e+01
1.485439208035950820e+01,-3.275757990709130496e+01,3.640179851650869125e+01
1.601252633395229097e+01,-3.348091443423812308e+01,3.763231120393577811e+01
1.718385060906335227e+01,-3.408716634067426554e+01,3.875001740919837090e+01
1.836582790611130278e+01,-3.458867625073089158e+01,3.976186210145355204e+01
1.955592889593222949e+01,-3.499671367271122335e+01,4.067412315522554422e+01
2.075168012738776824e+01,-3.532156216575777563e+01,4.149251059425150601e+01
2.195069511196443912e+01,-3.557260341193225628e+01,4.222224718020983403e+01
2.315070429989089718e+01,-3.575839505212089620e+01,4.286813691307828122e+01
2.434955879152756708e+01,-3.588673909613789448e+01,4.343461973504658147e+01
2.554524367103650917e+01,-3.596474926261252847e+01,4.392581482657270442e+01
2.673588043072880538e+01,-3.599890872664053632e+01,4.434555614949221791e+01
2.791971570009771852e+01,-3.599512907472840340e+01,4.469742926870875266e+01
2.909512594746653491e+01,-3.595879614639829214e+01,4.498479325078472613e+01
3.026060999135691532e+01,-3.589482060845421074e+01,4.521080652845645886e+01
3.141477429854169401e+01,-3.580767795268233300e+01,4.537844093468208939e+01
3.255633327499717211e+01,-3.570144949110203925e+01,4.549050576350705200e+01
3.368409575339168782e+01,-3.557985593137112090e+01,4.554965691656748561e+01
3.479696020061045658e+01,-3.544628729344152163e+01,4.555841427366889462e+01
3.589390418806498673e+01,-3.530383975242379790e+01,4.551916940894540886e+01
3.697397975541132098e+01,-3.515533332260395838e+01,4.543420264028348754e+01
3.803630079426206834e+01,-3.500334136421837883e+01,4.530568332955409261e+01
3.908004422527334754e+01,-3.485021043687333275e+01,4.513568957545397353e+01
4.010443858735565925e+01,-3.469808097235568312e+01,4.492620820437455365e+01
4.110875899886551821e+01,-3.454890510071287935e+01,4.467914625277681040e+01
4.209232677271557321e+01,-3.440445940043797890e+01,4.439633637126868138e+01
4.305449851848680254e+01,-3.426636622894385908e+01,4.407954447441552048e+01
4.399466539430036249e+01,-3.413610072184549438e+01,4.373047309257401594e+01
4.491225223266282995e+01,-3.401500330296963170e+01,4.335076949062278828e+01
4.580671097865809571e+01,-3.390429408383172216e+01,4.294203124801265403e+01
4.667751950978519915e+01,-3.380507708505748354e+01,4.250580602407891462e+01
4.752417939746386111e+01,-3.371835405323810164e+01,4.204360158929888769e+01
4.834621434672686036e+01,-3.364502831543048700e+01,4.155688353710522875e+01
4.914316714608357728e+01,-3.358591194270338320e+01,4.104708737984571343e+01
4.991460310718038329e+01,-3.354173398297569975e+01,4.051561005374822599e+01
5.066009995321200421e+01,-3.351314242347493177e+01,3.996382378968249327e+01
5.137925794294025650e+01,-3.350071552445810141e+01,3.939307105009150689e+01
5.207169039181509618e+01,-3.350495797183744173e+01,3.880467174228262905e+01
5.273702973539794669e+01,-3.352630997863523277e+01,3.819992197901753173e+01
5.337492196229759145e+01,-3.356515067723236712e+01,3.758009534362147264e+01
5.398502775830672107e+01,-3.362179987999061836e+01,3.694644973276895428e+01
5.456702631023165395e+01,-3.369652026327349148e+01,3.630022133184804289e+01
5.512060898814316801e+01,-3.378952362368588780e+01,3.564262976019151097e+01
5.564548503790418721e+01,-3.390096745767219488e+01,3.497487999711845674e+01
5.614137742425696587e+01,-3.403096184066235708e+01,3.429816014911360611e+01
5.660802670306356532e+01,-3.417956919410584504e+01,3.361364478276374257e+01
5.704518708673073490e+01,-3.434680803136975413e+01,3.292249223204773045e+01
5.745262887479494651e+01,-3.453264864420690117e+01,3.222584783392536423e+01
5.783014231612715150e+01,-3.473702584685926809e+01,3.152484268923403832e+01
5.817752896823378705e+01,-3.495982647990411607e+01,3.082059488267493208e+01
5.849460969867662641e+01,-3.520090216255251647e+01,3.011420659251571053e+01
5.878122398146290095e+01,-3.546006268466059907e+01,2.940676693223164762e+01
5.903722507051303836e+01,-3.573708387730403757e+01,2.869935142727104704e+01
5.926248598668208700e+01,-3.603170097639374347e+01,2.799301848741217924e+01
5.945689608621890443e+01,-3.634361685780297080e+01,2.728881587627859417e+01
5.962036528744493324e+01,-3.667249708410984965e+01,2.658777022678575364e+01
5.975281981169601409e+01,-3.701797712755110581e+01,2.589089681874011006e+01
5.985420376271856213e+01,-3.737965539551198901e+01,2.519919224236682354e+01
5.992448118491883235e+01,-3.775710319618778499e+01,2.451363694797402815e+01
5.996363547781179903e+01,-3.814985605370287658e+01,2.383519358453591153e+01
5.997166719949684222e+01,-3.855742392387273298e+01,2.316480625978940111e+01
5.994859690079306347e+01,-3.897928356969944019e+01,2.250339977006915504e+01
5.989446501054256800e+01,-3.941488570140138847e+01,2.185188072600589138e+01
5.980933098127771075e+01,-3.986365405176518806e+01,2.121113388428325308e+01
5.969327311975762029e+01,-4.032498378342745582e+01,2.058202287323126001e+01
5.954638895018563716e+01,-4.079824705316545419e+01,1.996539231082510568e+01
5.936879898194457894e+01,-4.128278810590988712e+01,1.936206090486217590e+01
5.916063828637116728e+01,-4.177792915209265345e+01,1.877282717860112982e+01
5.892206434034944351e+01,-4.228297047826765720e+01,1.819846403437459514e+01
5.865325503878509750e+01,-4.279718829964141946e+01,1.763972107771249398e+01
5.835440729774234114e+01,-4.331983873311315847e+01,1.709732111138090360e+01
5.802573510582990224e+01,-4.385015764253746084e+01,1.657196370925728246e+01
5.766747580880462465e+01,-4.438736383800994645e+01,1.606431975720052918e+01
5.727988222661522855e+01,-4.493065492230310554e+01,1.557503442869560928e+01
5.686323100556338517e+01,-4.547921230185075814e+01,1.510472416642430638e+01
5.641781312298041229e+01,-4.603220447869203724e+01,1.465397771631500135e+01
5.594394182295524587e+01,-4.658878143196773891e+01,1.422335644314802749e+01
5.544194831221925313e+01,-4.714808027768467014e+01,1.381338910790982943e+01
5.491218304901303782e+01,-4.770922704687893656e+01,1.342457763719326103e+01
5.435501411269886063e+01,-4.827133301490559347e+01,1.305739368180837623e+01
5.377082787277045384e+01,-4.883350260364235851e+01,1.271227502051754321e+01
5.316002880845415746e+01,-4.939482834224705954e+01,1.238963162595351264e+01
5.252304007273133379e+01,-4.995439536868298802e+01,1.208984070815305500e+01
5.186030238739767384e+01,-5.051128077255287252e+01,1.181324819179054408e+01
5.117227276596705110e+01,-5.106455742859797908e+01,1.156016659903728261e+01
5.045942500113276452e+01,-5.161329084459821104e+01,1.133087661259301271e+01
4.972225081294971005e+01,-5.215654704372538930e+01,1.112562671615408760e+01
4.896125823031940882e+01,-5.269338358863739558e+01,1.094463210482190973e+01
4.817697211041735272e+01,-5.322286275766244046e+01,1.078807642362139063e+01
4.736992946634280344e+01,-5.374404193323094603e+01,1.065610825375213722e+01
4.654068633285520917e+01,-5.425598170427873868e+01,1.054884361609993526e+01
4.568981327488973676e+01,-5.475774518362215559e+01,1.046636458332933017e+01
4.481789438070374132e+01,-5.524839900215557975e+01,1.040872116886702692e+01
4.392552830667848696e+01,-5.572701215476368475e+01,1.037593090758652004e+01
4.301332845989656306e+01,-5.619266124720230948e+01,1.036797652294717054e+01
4.208192107117633185e+01,-5.664442981142646261e+01,1.038480792112114059e+01
4.113194476013584477e+01,-5.708140840155437701e+01,1.042634297119597520e+01
4.016405204896333458e+01,-5.750269796857872251e+01,1.049246487462246513e+01
3.917890673595797324e+01,-5.790740796844553984e+01,1.058302808198390288e+01
3.817718452797473105e+01,-5.829465963983527388e+01,1.069785246910273102e+01
3.715957336706949121e+01,-5.866358917832663877e+01,1.083672532207901007e+01
3.612677088495951949e+01,-5.901334399817375953e+01,1.099940417275404592e+01
3.507948613172492713e+01,-5.934308630644020610e+01,1.118561557675055873e+01
3.401843566308607336e+01,-5.965199460992625546e+01,1.139505210682859371e+01
3.294434792046247651e+01,-5.993926487083884069e+01,1.162738117102382773e+01
3.185795951925553737e+01,-6.020411045810076445e+01,1.188223708169560489e+01
3.076001557402292974e+01,-6.044576139679166715e+01,1.215922525197792758e+01
2.965126925750412923e+01,-6.066347340504668750e+01,1.245792238325799239e+01
2.853247944901711008e+01,-6.085651566559481296e+01,1.277787972242084891e+01
2.740441260605177476e+01,-6.102418439107596271e+01,1.311861699082042421e+01
2.626784508055305167e+01,-6.116579666158672524e+01,1.347963053200907879e+01
2.512355339992809888e+01,-6.128069248822585990e+01,1.386038896771118445e+01
2.397232335530370761e+01,-6.136823820769613747e+01,1.426033615031566981e+01
2.281494254262733179e+01,-6.142782425691081016e+01,1.467889279541424408e+01
2.165220558786280236e+01,-6.145886675857839521e+01,1.511545256688339123e+01
2.048490853527167133e+01,-6.146080912677135188e+01,1.556938941271125287e+01
1.931385393953529572e+01,-6.143312340826964402e+01,1.604005264024139166e+01
1.813984141208244694e+01,-6.137530857934766004e+01,1.652677224231626951e+01
1.696367723457580468e+01,-6.128689241764632101e+01,1.702885828389108269e+01
1.578616659189336957e+01,-6.116743483792688352e+01,1.754559890904780417e+01
1.460811805818127240e+01,-6.101652391268542175e+01,1.807626664135889172e+01
1.343033773741691839e+01,-6.083377814974266329e+01,1.862011454856233073e+01
1.225363280674210564e+01,-6.061884894747313979e+01,1.917638095432178602e+01
1.107881163306185179e+01,-6.037142005064032446e+01,1.974428724506806176e+01
9.906677460347882658e+00,-6.009120577064157942e+01,2.032304112548601083e+01
8.738034329983571880e+00,-5.977795485636471540e+01,2.091183670798653083e+01
7.573682883329954763e+00,-5.943144762530566538e+01,2.150985403172125743e+01
6.414422240017901622e+00,-5.905149942455970091e+01,2.211626712842956621e+01
5.261045365228910420e+00,-5.863796038516461806e+01,2.273023398445409526e+01
4.114342912716614009e+00,-5.819071235364173589e+01,2.335090647445374401e+01
2.975101692386605823e+00,-5.770967238830799317e+01,2.397742854181113259e+01
1.844102875592788182e+00,-5.719479325634486599e+01,2.460893523257039206e+01
7.221212321452299410e-01,-5.664606366758813039e+01,2.524455883937632095e+01
-3.900750144624344773e-01,-5.606350206403083547e+01,2.588342626459042961e+01
-1.491723415747448378e+00,-5.544716835282934397e+01,2.652465706056779027e+01
-2.582068948977485956e+00,-5.479715258982937343e+01,2.716737486457665085e+01
-3.660363527913323534e+00,-5.411358339453911981e+01,2.781069714975962626e+01
-4.725869448068383605e+00,-5.339662116670958625e+01,2.845374376529800031e+01
-5.777854387386143209e+00,-5.264646205940060497e+01,2.909563451014532731e+01
-6.815599885487674037e+00,-5.186334039695019982e+01,2.973549261686492429e+01
-7.838392301753398961e+00,-5.104751915074238156e+01,3.037244285867960869e+01
-8.845533410201683822e+00,-5.019930129517157269e+01,3.100561706585242661e+01
-9.836331024883191887e+00,-4.931901975970215091e+01,3.163415066643039708e+01
-1.081010621106018732e+01,-4.840704374632610296e+01,3.225718594800955685e+01
-1.176619211579918733e+01,-4.746377516889717896e+01,3.287387420872873633e+01
-1.270393248677006959e+01,-4.648964898283381331e+01,3.348337422324348722e+01
-1.362268610898482812e+01,-4.548513295380954702e+01,3.408485560286137428e+01
-1.452182225745564104e+01,-4.445072726109297889e+01,3.467749964252407580e+01
-1.540072621106065220e+01,-4.338696282471869381e+01,3.526049817778624629e+01
-1.625879265250119587e+01,-4.229440414629576139e+01,3.583305809543092124e+01
-1.709543600062605151e+01,-4.117364532052965842e+01,3.639439786422511958e+01
-1.791008313822803188e+01,-4.002530757968846586e+01,3.694375401667321768e+01
-1.870217345556796218e+01,-3.885004658283386192e+01,3.748037691855416398e+01
-1.947116665851407902e+01,-3.764854341974043450e+01,3.800353688068326363e+01
-2.021653326036258846e+01,-3.642150852416127549e+01,3.851251928632643740e+01
-2.093776476727053648e+01,-3.516967997021955483e+01,3.900662859744861066e+01
-2.163436401862981384e+01,-3.389382126494462710e+01,3.948519212436998771e+01
-2.230585687577571363e+01,-3.259472097064155349e+01,3.994755484184360483e+01
-2.295178069870326354e+01,-3.127319706063468985e+01,4.039308448211659197e+01
-2.357169487875255953e+01,-2.993008669669784183e+01,4.082117173884598316e+01
-2.416517196021034408e+01,-2.856625208581818853e+01,4.123122940551810700e+01
-2.473180832283265218e+01,-2.718257698118267029e+01,4.162269490437530095e+01
-2.527121236682843985e+01,-2.577996854179009745e+01,4.199502952463195982e+01
-2.578301622515979830e+01,-2.435935219534276186e+01,4.234772052064492698e+01
-2.626687010634466191e+01,-2.292167445499330825e+01,4.268028148847580638e+01
-2.672243918265691676e+01,-2.146789803345514613e+01,4.299225084328362811e+01
-2.714941446000042546e+01,-1.999900440663535406e+01,4.328319714107359317e+01
-2.754750176012977647e+01,-1.851599191271185063e+01,4.355271402315722895e+01
-2.791642926730323637e+01,-1.701987215697886313e+01,4.380042346320821167e+01
-2.825594198536367330e+01,-1.551167381797344191e+01,4.402597894063453055e+01
-2.856580983861984535e+01,-1.399243554612539420e+01,4.422905929910383804e+01
-2.884581911400848853e+01,-1.246320906313535737e+01,4.440937612416926328e+01
-2.909577847719343424e+01,-1.092505681835586273e+01,4.456666976230360433e+01
-2.931551540403419054e+01,-9.379050968772087771e+00,4.470070987866460399e+01
-2.950488040945959511e+01,-7.826273163888270545e+00,4.481129954752467626e+01
-2.966374306188055243e+01,-6.267809917498066596e+00,4.489826893860784907e+01
-2.979199515920220520e+01,-4.704754982886404591e+00,4.496148189708515019e+01
-2.988954847243624968e+01,-3.138208300911333293e+00,4.500083345195343298e+01
-2.995633613802911199e+01,-1.569270051342960492e+00,4.501624933672159301e+01
-2.999231249391456444e+01,9.535784949276944868e-04,4.500768662602571624e+01
-2.999745331752816568e+01,1.571356244112534828e+00,4.497513329916287717e+01
-2.997175284340066881e+01,3.140831912631667944e+00,4.491861131358855630e+01
-2.991523236733152658e+01,4.708275461702441156e+00,4.483817358435528178e+01
-2.982792797012180230e+01,6.272584829262403794e+00,4.473390072679399765e+01
-2.970990025771384779e+01,7.832661054188350569e+00,4.460590907887301171e+01
-2.956122970787077620e+01,9.387408700652898119e+00,4.445434601347718484e+01
-2.938201864919407313e+01,1.093573979833973553e+01,4.427938672044697910e+01
-2.917238919244208617e+01,1.247657276608730115e+01,4.408124042222249273e+01
-2.893248668816349678e+01,1.400883535628473275e+01,4.386014571733017675e+01
-2.866247479143969557e+01,1.553146229420667979e+01,4.361637176789651704e+01
-2.836253683515238322e+01,1.704340274303705627e+01,4.335021647248608900e+01
-2.803288055775963983e+01,1.854361243563049300e+01,4.306200854634843012e+01
-2.767373037656984991e+01,2.003106553231444664e+01,4.275210667963715849e+01
-2.728533428106651115e+01,2.150474609046236907e+01,4.242089663408776801e+01
-2.686795660339265268e+01,2.296365581392191757e+01,4.206879218010190158e+01
-2.642188486824260707e+01,2.440681037771086181e+01,4.169623673447355827e+01
-2.594742383344996384e+01,2.583324504751821138e+01,4.130370027058967963e+01
-2.544489874140770169e+01,2.724200985818066201e+01,4.089167659186677639e+01
-2.491465419135497683e+01,2.863217837467593441e+01,4.046068874094591195e+01
-2.435705331868081913e+01,3.000284189219214070e+01,4.001128541302856689e+01
-2.377247867677999338e+01,3.135311238891771524e+01,3.954403587957315125e+01
-2.316133119215341907e+01,3.268212657208091798e+01,3.905953719063954566e+01
-2.252402839282598279e+01,3.398904071120402648e+01,3.855840770472328671e+01
-2.186100884022954460e+01,3.527303797105896876e+01,3.804128834527966774e+01
-2.117272534732531497e+01,3.653332548513451883e+01,3.750884214182162424e+01
-2.045965025276268889e+01,3.776913545414634399e+01,3.696175171555422878e+01
-1.972227213084074293e+01,3.897972734649702886e+01,3.640072026098646063e+01
-1.896109725730421047e+01,4.016438694375306540e+01,3.582646972990585255e+01
-1.817664695524947049e+01,4.132242869021007436e+01,3.523974081865040375e+01
-1.736945702354108789e+01,4.245319626797071066e+01,3.464128889892747765e+01
-1.654008350588684095e+01,4.355606135075700536e+01,3.403188856259327366e+01
-1.568909250673338107e+01,4.463042638636582637e+01,3.341232688305211695e+01
-1.481706793796514532e+01,4.567572399415407602e+01,3.278340623280498534e+01
-1.392460846392087959e+01,4.669141807218375817e+01,3.214594280136414994e+01
-1.301232488686849109e+01,4.767700523865499207e+01,3.150076328437040019e+01
-1.208084249988496772e+01,4.863201261718464252e+01,3.084870632237561594e+01
-1.113079962381119437e+01,4.955600003970707235e+01,3.019062016614102006e+01
-1.016284667062932456e+01,5.044856286440205650e+01,2.952736212136638372e+01
-9.177649044546445367e+00,5.130932494675606392e+01,2.885979628953760923e+01
-8.175880122361569136e+00,5.213794887202121231e+01,2.818879441489366044e+01
-7.158227651935416880e+00,5.293412966522139840e+01,2.751523476626367781e+01
-6.125386827677117729e+00,5.369759406629518850e+01,2.683999751444273585e+01
-5.078067955432919334e+00,5.442810732863649292e+01,2.616396725240692689e+01
-4.016988680206493356e+00,5.512546685419727055e+01,2.548803210609623449e+01
-2.942874504820319981e+00,5.578950491846858029e+01,2.481307836495403762e+01
-1.856462972759244545e+00,5.642008962305038722e+01,2.413999483014669778e+01
-7.584983163952425667e-01,5.701712302160852630e+01,2.346966728315715400e+01
3.502665880441409585e-01,5.758054389301547360e+01,2.280298034180760069e+01
1.469072690665177650e+00,5.811032242851860019e+01,2.214081387102344323e+01
2.597152246886289095e+00,5.860646860167252470e+01,2.148404296605654551e+01
3.733733128533224033e+00,5.906902133886017481e+01,2.083353878119121561e+01
4.878036474695336189e+00,5.949806040921375683e+01,2.019016302001280394e+01
6.029276765002236971e+00,5.989369352389737600e+01,1.955477136493121293e+01
7.186665523755416451e+00,6.025606705511106043e+01,1.892820974825405500e+01
8.349410384475692837e+00,6.058536074155161089e+01,1.831131215599787865e+01
9.516713273652426253e+00,6.088178602265738704e+01,1.770490402133561503e+01
1.068777444311000480e+01,6.114558755314303085e+01,1.710979605438337359e+01
1.186179178989782557e+01,6.137704519194853248e+01,1.652678546701232065e+01
1.303796100288601423e+01,6.157646847298727266e+01,1.595665753030679213e+01
1.421547481707397864e+01,6.174420097670711272e+01,1.540017884061030706e+01
1.539352754099234488e+01,6.188061526087611242e+01,1.485810071566106316e+01
1.657131118344601006e+01,6.198611711632317878e+01,1.433115772066801874e+01
1.774801777157826521e+01,6.206114167863686504e+01,1.382006423638061499e+01
1.892284160728457110e+01,6.210615334938652410e+01,1.332551569706965999e+01
2.009497844086652307e+01,6.212164518873247943e+01,1.284818774350728177e+01
2.126362312203791660e+01,6.210813889640721897e+01,1.238873494518922058e+01
2.242797567651201973e+01,6.206618447050297505e+01,1.194778763325894388e+01
2.358723818219706203e+01,6.199635900922388032e+01,1.152595578107325025e+01
2.474061696938230881e+01,6.189926438306793699e+01,1.112382304576849634e+01
2.588731921167335415e+01,6.177552766589148092e+01,1.074195008124030082e+01
2.702656040419982730e+01,6.162580125060479475e+01,1.038087161158612126e+01
2.815756054053280621e+01,6.145076212318534203e+01,1.004109642632034038e+01
2.927954284303305243e+01,6.125110675872878829e+01,9.723105064267944186e+00
3.039174011531031283e+01,6.102755486544956653e+01,9.427353062875498679e+00
3.149338882552911301e+01,6.078085001581792568e+01,9.154266050405190924e+00
3.258373434486827591e+01,6.051174965447768272e+01,8.904240602517477399e+00
3.366202954079365384e+01,6.022103568797278683e+01,8.677645224547267944e+00
3.472753489862292753e+01,5.990950452218092437e+01,8.474818303403829134e+00
3.577952110878597836e+01,5.957797083463908194e+01,8.296066507314662886e+00
3.681726623449267066e+01,5.922726402888082475e+01,8.141667652654172471e+00
3.784006002672676772e+01,5.885822980129367465e+01,8.011867191026848189e+00
3.884720066270289607e+01,5.847172552737049500e+01,7.906878551579241687e+00
3.983799819220251948e+01,5.806862314756581611e+01,7.826884179508764028e+00
4.081177243131561738e+01,5.764980504526024419e+01,7.772034164537551248e+00
4.176785859762848929e+01,5.721616207027902590e+01,7.742445822627815666e+00
4.270559968746763957e+01,5.676859828316700884e+01,7.738202377828776513e+00
4.362435388768960109e+01,5.630802164687437994e+01,7.759356884421547917e+00
4.452349002670844413e+01,5.583535084581777141e+01,7.805926635892025622e+00
4.540239332142551376e+01,5.535150647296451609e+01,7.877897368712551973e+00
4.626046021828909716e+01,5.485741826668000698e+01,7.975221893516872385e+00
4.709710327350726544e+01,5.435401555058774647e+01,8.097817214611728431e+00
4.791175063605094664e+01,5.384222967493103340e+01,8.245568071169136815e+00
4.870384065789406236e+01,5.332299671585517586e+01,8.418329005838474544e+00
4.947283308721429052e+01,5.279724946179749878e+01,8.615917968939065474e+00
5.021820038147281196e+01,5.226592127698080503e+01,8.838120435704684752e+00
5.093943064009570065e+01,5.172994264469171810e+01,9.084689380610569742e+00
5.163603217898617004e+01,5.119024007848388891e+01,9.355346442156301734e+00
5.230752473343867592e+01,5.064773550231673482e+01,9.649778084638899855e+00
5.295344917668380447e+01,5.010334580038254870e+01,9.967642087940198792e+00
5.357336175574477721e+01,4.955798006378979181e+01,1.030856173316485780e+01
5.416683992189129526e+01,4.901253984388316098e+01,1.067213117970211478e+01
5.473347546517278062e+01,4.846791723204862024e+01,1.105791112732018711e+01
5.527287941352276590e+01,4.792499414975098659e+01,1.146543381015316143e+01
5.578468384800850544e+01,4.738464253067136411e+01,1.189420165920500239e+01
5.626853637265377017e+01,4.684771857443070786e+01,1.234368596034633114e+01
5.672410681330282500e+01,4.631506875342895313e+01,1.281333066778926266e+01
5.715108240021156405e+01,4.578752269314470169e+01,1.330254898907955941e+01
5.754916982034347939e+01,4.526589525007504733e+01,1.381073142536349252e+01
5.791809696977019684e+01,4.475098585838552623e+01,1.433723551083657277e+01
5.825760941183608566e+01,4.424357440952056919e+01,1.488139641176482364e+01
5.856747725551640826e+01,4.374442493569099355e+01,1.544252237366933223e+01
5.884748591781040972e+01,4.325427960899819624e+01,1.601989768444619244e+01
5.909744547261874459e+01,4.277386276218017258e+01,1.661278127171517127e+01
5.931718276891275821e+01,4.230387604084572928e+01,1.722041098573861717e+01
5.950654753909325478e+01,4.184500016781596798e+01,1.784199784292269797e+01
5.966541018034899935e+01,4.139789304119774727e+01,1.847673792030171214e+01
5.979366236955196712e+01,4.096318887704308054e+01,1.912380241699435146e+01
5.989121552118312053e+01,4.054149759632010586e+01,1.978234369298255757e+01
5.995800415617831902e+01,4.013340485175818628e+01,2.045149603431110563e+01
5.999398011397659758e+01,3.973946955190363894e+01,2.113037681980932447e+01
5.999911993858973602e+01,3.936022602554200489e+01,2.181808411252169932e+01
5.997342106210950163e+01,3.899618159575858556e+01,2.251370312064263501e+01
5.991689928029553158e+01,3.864781257849688956e+01,2.321630303776973037e+01
5.982959489233143557e+01,3.831557269681518108e+01,2.392494118541486969e+01
5.971156703784438946e+01,3.799988420111367304e+01,2.463866045590663845e+01
5.956289658382219443e+01,3.770113958362723139e+01,2.535649330288677206e+01
5.938368556857899705e+01,3.741970459107724878e+01,2.607746209847051944e+01
5.917405646844783718e+01,3.715591235616345500e+01,2.680058082553275511e+01
5.893415346534612098e+01,3.691006831319651127e+01,2.752485425483340720e+01
5.866414130536589511e+01,3.668244640746200957e+01,2.824928186244057571e+01
5.836420399264465431e+01,3.647328943278063917e+01,2.897285598905288850e+01
5.803454739845660271e+01,3.628280896018910084e+01,2.969456566552334564e+01
5.767539839697204940e+01,3.611118685558442820e+01,3.041339551195105173e+01
5.728700160310084044e+01,3.595857174549663426e+01,3.112833064038555975e+01
5.686962427213087778e+01,3.582508280450824856e+01,3.183835193660824459e+01
5.642355199459442616e+01,3.571080423652835378e+01,3.254244346420787792e+01
5.594908990925215164e+01,3.561579357666740009e+01,3.323958884060222374e+01
5.544656558207417163e+01,3.554007224416652377e+01,3.392877602753547706e+01
5.491632096523928652e+01,3.548363217589337637e+01,3.460899482873003308e+01
5.435872066204082387e+01,3.544643359638774882e+01,3.527924304857637594e+01
5.377414630764231873e+01,3.542840479361942130e+01,3.593852158633122684e+01
5.316299762489428105e+01,3.542944407437786936e+01,3.658584073926033398e+01
5.252569520168805184e+01,3.544941666303144245e+01,3.722021907990278322e+01
5.186267558817769441e+01,3.548815961571909838e+01,3.784068471864058836e+01
5.117439212305852436e+01,3.554547549605906198e+01,3.844627664970120406e+01
5.046131705500652487e+01,3.562114124233747958e+01,3.903604566052715086e+01
4.972394002587051887e+01,3.571490093867315352e+01,3.960905595120523515e+01
4.896276513129595287e+01,3.582646988034584723e+01,4.016438748006708437e+01
4.817831392731013551e+01,3.595553480341019537e+01,4.070113132930285360e+01
4.737112391225069530e+01,3.610175355905954575e+01,4.121840071867708843e+01
4.654175079510846302e+01,3.626475451433550035e+01,4.171532290943525112e+01
4.569075987471286737e+01,3.644414129209800279e+01,4.219104320235435779e+01
4.481873588876631942e+01,3.663948823317224424e+01,4.264472813892326286e+01
4.392627576250495736e+01,3.685034405275416702e+01,4.307556332738784022e+01
4.301399251227945797e+01,3.707623159682835023e+01,4.348275893012847604e+01
4.208250969438188349e+01,3.731664898319225188e+01,4.386554268384777089e+01
4.113246625287994362e+01,3.757106958741371727e+01,4.422317073107011254e+01
4.016451472853540849e+01,3.783894327739664476e+01,4.455492008086888944e+01
3.917931541982112975e+01,3.811969758962295174e+01,4.486009381874027468e+01
3.817754716007430460e+01,3.841273662902891317e+01,4.513802123704149238e+01
3.715989350640030864e+01,3.871744273624304356e+01,4.538805850210187032e+01
3.612705401423158236e+01,3.903318187226696523e+01,4.560958918683689234e+01
3.507973538827477000e+01,3.935929610805977319e+01,4.580202556964892580e+01
3.401865534279831849e+01,3.969510919868262988e+01,4.596480788159630038e+01
3.294454138480061545e+01,4.003993030302756040e+01,4.609740680927825451e+01
3.185813009416339270e+01,4.039304911333393022e+01,4.619932312026707422e+01
3.076016607978415962e+01,4.075374005737069183e+01,4.627008932165697530e+01
2.965140035825705667e+01,4.112126304586238490e+01,4.630926808323768284e+01
2.853259470591274649e+01,4.149486408428170137e+01,4.631645645917565446e+01
2.740451488122920409e+01,4.187377566634682324e+01,4.629127948400835635e+01
2.626793403018281481e+01,4.225721934552264258e+01,4.623340144249240069e+01
2.512363074048288780e+01,4.264440603103194150e+01,4.614251456997001100e+01
2.397239093850799208e+01,4.303453638034475404e+01,4.601834774208099077e+01
2.281500133377123518e+01,4.342680276185416943e+01,4.586066352537797997e+01
2.165225730060433662e+01,4.382038944771485944e+01,4.566925880241193880e+01
2.048495404182115465e+01,4.421447550712897367e+01,4.544396582547899044e+01
1.931389264893731195e+01,4.460823399754431051e+01,4.518465108422930143e+01
1.813987423584717362e+01,4.500083321583956320e+01,4.489121604272757082e+01
1.696370575610288611e+01,4.539144092539896747e+01,4.456359775951219859e+01
1.578619169986403570e+01,4.577921846287969743e+01,4.420176896416115397e+01
1.460813971983163917e+01,4.616333092862355869e+01,4.380573783852591419e+01
1.343035637822815076e+01,4.654294156580963460e+01,4.337554736108003794e+01
1.225364932671733520e+01,4.691721478927567546e+01,4.291127677221303571e+01
1.107882499110951358e+01,4.728531922522062558e+01,4.241304102170148127e+01
9.906689467767586521e+00,4.764642489311474804e+01,4.188098832355520784e+01
8.738043819457169903e+00,4.799970791226488132e+01,4.131530483250631391e+01
7.573691065304427816e+00,4.834435193007612952e+01,4.071620871806037201e+01
6.414428022400922913e+00,4.867954463754941230e+01,4.008395631099206469e+01
5.261051139900460250e+00,4.900448479251396350e+01,3.941883497528488078e+01
4.114348394136993825e+00,4.931837700249884193e+01,3.872116818816459016e+01
2.975106696810550844e+00,4.962044035454296420e+01,3.799131301327390986e+01
1.844107014949863288e+00,4.990990108130130665e+01,3.722966083267911586e+01
7.221239801147999460e-01,5.018600044713096509e+01,3.643663323145675292e+01
-3.900726318410687177e-01,5.044799399096352488e+01,3.561268641834548987e+01
-1.491721102107184116e+00,5.069514847142441738e+01,3.475830844170248213e+01
-2.582067103818083353e+00,5.092674906883751618e+01,3.387401869160588319e+01
-3.660362444569093654e+00,5.114209763874747949e+01,3.296036751991593405e+01
-4.725867978907552391e+00,5.134050945755512174e+01,3.201793649819689591e+01
-5.777854785317743769e+00,5.152132465104295278e+01,3.104733360145604237e+01
-6.815598844322595440e+00,5.168389587011595410e+01,3.004920041181478396e+01
-7.838392470909168352e+00,5.182760033079968309e+01,2.902420316486172069e+01
-8.845533448052409042e+00,5.195183564734056603e+01,2.797303719223458884e+01
-9.836330926239257977e+00,5.205602051071196712e+01,2.689642454280265227e+01
-1.081010671837140613e+01,5.213959664020707407e+01,2.579511165256466754e+01
-1.176619176607425032e+01,5.220202937993834524e+01,2.466987296006859154e+01
-1.270393240429660686e+01,5.224280851624542521e+01,2.352150398937510545e+01
-1.362268636017033430e+01,5.226144845012629503e+01,2.235082727265502456e+01
-1.452182300529955228e+01,5.225749037091545546e+01,2.115868323579816490e+01
-1.540072500256325050e+01,5.223049959927713815e+01,1.994593736821096641e+01
-1.625879332541170186e+01,5.218007120631797591e+01,1.871347308251554153e+01
-1.709543676684237212e+01,5.210582584674851603e+01,1.746219652377730824e+01
-1.791008349109234388e+01,5.200741370755115156e+01,1.619302986258260901e+01
-1.870217416615861694e+01,5.188451220792400420e+01,1.490691129059678843e+01
-1.947116666212609459e+01,5.173683014624657517e+01,1.360479935749271974e+01
-2.021653437023858046e+01,5.156410401078586148e+01,1.228766486629093180e+01
-2.093776414438655564e+01,5.136610127084503574e+01,1.095649468175517960e+01
-2.163436444010891435e+01,5.114261889560179242e+01,9.612286251289015482e+00
-2.230585692783662921e+01,5.089348748360192332e+01,8.256052433994813811e+00
-2.295178183566751429e+01,5.061856583248034269e+01,6.888813224512231770e+00
-2.357169517674914161e+01,5.031774367712539231e+01,5.511601483125996737e+00
-2.416517282890920271e+01,4.999094648959778198e+01,4.125457196403447213e+00
-2.473180793093307983e+01,4.963812792930131224e+01,2.731427496607071959e+00
-2.527121221012709640e+01,4.925927515055904848e+01,1.330565147592262409e+00
-2.578301658842748623e+01,4.885440654201982369e+01,-7.606954122691043929e-02
-2.626686986349471553e+01,4.842357376811945358e+01,-1.487415625400501096e+00
-2.672244015106431192e+01,4.796685937724100768e+01,-2.902408826082052862e+00
-2.714941485883941397e+01,4.748437850601745680e+01,-4.319980338955351051e+00
-2.754750209573768416e+01,4.697628109134596031e+01,-5.739064625154012944e+00
-2.791642933857141529e+01,4.644274442645254908e+01,-7.158597418222192310e+00
-2.825594316069784995e+01,4.588398094563788021e+01,-8.577513806668141783e+00
-2.856581032243834173e+01,4.530023564582079842e+01,-9.994752666652415130e+00
-2.884581946862232371e+01,4.469178130525623516e+01,-1.140926072775826228e+01
-2.909577865639617045e+01,4.405892512940900474e+01,-1.281998615854921830e+01
-2.931551561846172405e+01,4.340200533647828962e+01,-1.422588627436666897e+01
-2.950488014821458549e+01,4.272138863773768946e+01,-1.562592595215184232e+01
-2.966374233944777572e+01,4.201747498972583372e+01,-1.701907956981909820e+01
-2.979199552854417377e+01,4.129069113363919996e+01,-1.840433151027672309e+01
-2.988954884849726312e+01,4.054149683944679339e+01,-1.978067694244032992e+01
-2.995633607550970012e+01,3.977037871914151879e+01,-2.114712437863599703e+01
-2.999231267786745647e+01,3.897785141575407408e+01,-2.250269626665209799e+01
-2.999745309581884456e+01,3.816445831579328996e+01,-2.384642844822007390e+01
-2.997175391592045557e+01,3.733077174184263924e+01,-2.517737372353965242e+01
-2.991523258272153996e+01,3.647738774807321249e+01,-2.649460070747253582e+01
-2.982792760502745111e+01,3.560493003274861223e+01,-2.779719623813228324e+01
-2.970989983362465736e+01,3.471404877335142203e+01,-2.908426602884314960e+01
-2.956122944613325743e+01,3.380541731627810265e+01,-3.035493479648269144e+01
-2.938201861019314265e+01,3.287973255767485625e+01,-3.160834937836376213e+01
-2.917238947336307575e+01,3.193771652742862699e+01,-3.284367731148137182e+01
-2.893248667161937604e+01,3.098011174493049680e+01,-3.406010733742478180e+01
-2.866247396942051751e+01,3.000768306433071686e+01,-3.525685469589992493e+01
-2.836253736266636949e+01,2.902121542006380395e+01,-3.643315456022070009e+01
-2.803288033093435416e+01,2.802151556303947899e+01,-3.758827136676292469e+01
-2.767373108305898910e+01,2.700940666505844945e+01,-3.872149244594191941e+01
-2.728533360895508153e+01,2.598572900577667610e+01,-3.983213227451454230e+01
-2.686795718822331480e+01,2.495134305658622864e+01,-4.091953343499969975e+01
-2.642188471790991855e+01,2.390712367080002210e+01,-4.198306443050663717e+01
-2.594742364931805056e+01,2.285395935468776685e+01,-4.302212395428870195e+01
-2.544489806092649076e+01,2.179275444765428915e+01,-4.403613889656482172e+01
-2.491465379816085601e+01,2.072442404493695278e+01,-4.502456597343635991e+01
-2.435705315928436931e+01,1.964989731121123029e+01,-4.598689399003038147e+01
-2.377247861115103689e+01,1.857011141587577896e+01,-4.692263761785528686e+01
-2.316133101199383404e+01,1.748601668782609053e+01,-4.783134765257624821e+01
-2.252402900009818865e+01,1.639856892718592363e+01,-4.871260435944137157e+01
-2.186100899874827874e+01,1.530873171763193419e+01,-4.956601879417775791e+01
-2.117272527697638296e+01,1.421747554590612062e+01,-5.039123647599382849e+01
-2.045964999819766561e+01,1.312577682286236325e+01,-5.118793474530243515e+01
-1.972227244570494520e+01,1.203461323294585661e+01,-5.195582204487217126e+01
-1.896109813289760737e+01,1.094496815797243450e+01,-5.269464212773515754e+01
-1.817664695471076186e+01,9.857824389877732685e+00,-5.340417115253278268e+01
-1.736945719636954166e+01,8.774166743003137370e+00,-5.408421934680000476e+01
-1.654008284276056528e+01,7.694977477565331014e+00,-5.473462807641188022e+01
-1.568909211904910173e+01,6.621238960375219307e+00,-5.535527387515260500e+01
-1.481706819649809503e+01,5.553930022149990542e+00,-5.594606835832105673e+01
-1.392460803626021359e+01,4.494022445670156962e+00,-5.650695405406442973e+01
-1.301232496215011203e+01,3.442487390428906835e+00,-5.703790750606474802e+01
-1.208084253172588163e+01,2.400285969867115288e+00,-5.753893861575955526e+01
-1.113079913310519053e+01,1.368371701002756291e+00,-5.801009282996817262e+01
-1.016284674920557940e+01,3.476926843728645466e-01,-5.845144463487896758e+01
-9.177648380511598702e+00,-6.608167595080075563e-01,-5.886310461699254404e+01
-8.175879893825888090e+00,-1.656234012407358014e+00,-5.924521378384674364e+01
-7.158226659337755926e+00,-2.637643890454557827e+00,-5.959794545709349478e+01
-6.125387401018945077e+00,-3.604148592061378498e+00,-5.992150734733627360e+01
-5.078067391623783955e+00,-4.554865249015101369e+00,-6.021613515241443793e+01
-4.016988177053336884e+00,-5.488921270868290847e+00,-6.048209807465570265e+01
-2.942874899975120861e+00,-6.405467339852902064e+00,-6.071969530695633921e+01
-1.856463582190257755e+00,-7.303667674762842843e+00,-6.092925591437762023e+01
-7.584979892904165633e-01,-8.182704788708935695e+00,-6.111113915039296529e+01
3.502665731795212012e-01,-9.041782593246619371e+00,-6.126573081589183545e+01
1.469072925009206276e+00,-9.880125677928727868e+00,-6.139345082203758608e+01
2.597152722397522595e+00,-1.069697857596925239e+01,-6.149474016671634047e+01
3.733733247311902925e+00,-1.149160848667802526e+01,-6.157007037975480301e+01
4.878036009719256327e+00,-1.226330706932261805e+01,-6.161994069041166000e+01
6.029276379036677014e+00,-1.301138967279401193e+01,-6.164487372723422709e+01
7.186665679360998205e+00,-1.373519524734019548e+01,-6.164541799016630108e+01
8.349410074357988876e+00,-1.443409026597310962e+01,-6.162214604492109515e+01
9.516713253915270343e+00,-1.510746834219892420e+01,-6.157565240743068813e+01
1.068777445488844613e+01,-1.575474780571040512e+01,-6.150655749922272975e+01
1.186179232895358560e+01,-1.637537797720058563e+01,-6.141550105184434472e+01
1.303796117393869025e+01,-1.696883519562247500e+01,-6.130314249515811298e+01
1.421547528520162196e+01,-1.753462616105444738e+01,-6.117016334181450077e+01
1.539352733728446765e+01,-1.807228611716921662e+01,-6.101726349524660975e+01
1.657131157387892273e+01,-1.858138364610164572e+01,-6.084515898805625511e+01
1.774801821541789693e+01,-1.906151602662609079e+01,-6.065458504499229520e+01
1.892284173745331799e+01,-1.951231301162210485e+01,-6.044629209093737643e+01
2.009497823205433775e+01,-1.993343627598729029e+01,-6.022104420769677091e+01
2.126362336635687811e+01,-2.032458207910464409e+01,-5.997962085403770516e+01
2.242797558306407879e+01,-2.068547685698719363e+01,-5.972281418417819054e+01
2.358723883289731660e+01,-2.101588121370792450e+01,-5.945142746754835628e+01
2.474061620495945846e+01,-2.131559035432199423e+01,-5.916627480144143192e+01
2.588731865893476680e+01,-2.158443375117197149e+01,-5.886817907435771957e+01
2.702656092376935248e+01,-2.182227382555174344e+01,-5.855797340030841269e+01
2.815756014678973784e+01,-2.202900756259308679e+01,-5.823649661422625456e+01
2.927954303306872674e+01,-2.220456851414124699e+01,-5.790459358723692418e+01
3.039174016634781594e+01,-2.234892237225616185e+01,-5.756311723483750598e+01
3.149338852903317942e+01,-2.246206950922049828e+01,-5.721291995033826083e+01
3.258373436973017334e+01,-2.254404816703168990e+01,-5.685486005747451088e+01
3.366202967164675641e+01,-2.259492841697663934e+01,-5.648979771137970829e+01
3.472753513311524642e+01,-2.261481598800052240e+01,-5.611858947557697519e+01
3.577952119154728905e+01,-2.260385236963222155e+01,-5.574209635997369361e+01
3.681726646418652393e+01,-2.256221234492801031e+01,-5.536117693301637388e+01
3.784005984492818442e+01,-2.249010637794603795e+01,-5.497668350465885823e+01
3.884720050894011933e+01,-2.238777630440936406e+01,-5.458946719045435003e+01
3.983799781726478528e+01,-2.225550296236806247e+01,-5.420037295741093430e+01
4.081177374740143193e+01,-2.209359441390720136e+01,-5.381024012792916267e+01
4.176785916393307474e+01,-2.190239739442975520e+01,-5.341990031082753632e+01
4.270560021225713143e+01,-2.168229034109415210e+01,-5.303017633502967954e+01
4.362435366863999775e+01,-2.143368196802611436e+01,-5.264188339679428452e+01
4.452348990124239236e+01,-2.115701595670437740e+01,-5.225582351446594487e+01
4.540239316663136293e+01,-2.085276501244921121e+01,-5.187278780387885035e+01
4.626046055849484873e+01,-2.052143587772084743e+01,-5.149355593658471975e+01
4.709710359809769642e+01,-2.016356436841819644e+01,-5.111889332265839414e+01
4.791175047001026854e+01,-1.977971430957984111e+01,-5.074955035677064785e+01
4.870384156963370259e+01,-1.937048246145157648e+01,-5.038626202564887535e+01
4.947283341767909803e+01,-1.893649188875592415e+01,-5.002974570533737619e+01
5.021820081123258461e+01,-1.847839568530408982e+01,-4.968070368275007809e+01
5.093943155548770818e+01,-1.799687107693774024e+01,-4.933981685388268801e+01
5.163603134650223581e+01,-1.749262425199272641e+01,-4.900774912885434986e+01
5.230752424958378555e+01,-1.696638603301245851e+01,-4.868514260718152542e+01
5.295344886889107983e+01,-1.641891294918629285e+01,-4.837261928395457744e+01
5.357336197243999010e+01,-1.585098514668031378e+01,-4.807077839332676916e+01
5.416684046972419253e+01,-1.526340505304184170e+01,-4.778019839938264823e+01
5.473347481719085295e+01,-1.465699737738320785e+01,-4.750143125946290468e+01
5.527287996670374781e+01,-1.403261128461176810e+01,-4.723500759171162144e+01
5.578468434114503083e+01,-1.339111209712660511e+01,-4.698143282592687342e+01
5.626853766169202231e+01,-1.273338495915812985e+01,-4.674118528608732959e+01
5.672410777469009702e+01,-1.206033626929342262e+01,-4.651471900177665475e+01
5.715108197692942582e+01,-1.137288677746127341e+01,-4.630246043007925039e+01
5.754916975471449803e+01,-1.067197501416009509e+01,-4.610480875298834746e+01
5.791809606102671637e+01,-9.958553865252035564e+00,-4.592213606524382641e+01
5.825761034980295250e+01,-9.233591290911336458e+00,-4.575478518938410843e+01
5.856747724359520646e+01,-8.498066717824713123e+00,-4.560307220662059535e+01
5.884748690876291732e+01,-7.752972533820813972e+00,-4.546728170941609903e+01
5.909744518751833908e+01,-6.999312442455128291e+00,-4.534767047019322206e+01
5.931718237273691585e+01,-6.238096918215185305e+00,-4.524446432031390941e+01
5.950654709461949921e+01,-5.470348357071610046e+00,-4.515786008995986123e+01
5.966541008050201356e+01,-4.697093927648854361e+00,-4.508802377639408832e+01
5.979366283742678689e+01,-3.919366148176842035e+00,-4.503509163591873232e+01
5.989121594007558969e+01,-3.138207582162059861e+00,-4.499916642447332293e+01
5.995800366092427680e+01,-2.354658269885666400e+00,-4.498032391316622380e+01
5.999397950080231112e+01,-1.569763652107232899e+00,-4.497860618600878979e+01
5.999912022038246562e+01,-7.845701761037870980e-01,-4.499402556485779314e+01
5.997342076159806368e+01,-1.230049024276864413e-04,-4.502656281901486324e+01
5.991689936872421640e+01,7.825314278253295841e-01,-4.507616712084035271e+01
5.982959529651444086e+01,1.562348981013413018e+00,-4.514275755770412957e+01
5.971156696641541828e+01,2.338292217214912316e+00,-4.522622240123838111e+01
5.956289634467018601e+01,3.109325518200618976e+00,-4.532641906374421836e+01
5.938368569258711460e+01,3.874421513886990631e+00,-4.544317319598305716e+01
5.917405688328862823e+01,4.632556502865747383e+00,-4.557628207535643128e+01
5.893415436418010955e+01,5.382717269113598491e+00,-4.572551203799815767e+01
5.866414152380419011e+01,6.123900944943169833e+00,-4.589059861006178664e+01
5.836420365975660474e+01,6.855113261841941252e+00,-4.607125083345447081e+01
5.803454765806630888e+01,7.575371701078481124e+00,-4.626714406365970689e+01
5.767539779145518253e+01,8.283708273348150186e+00,-4.647793143650223158e+01
5.728700181868286734e+01,8.979166637327729461e+00,-4.670322947415169068e+01
5.686962454932860567e+01,9.660808652240147509e+00,-4.694263495354789484e+01
5.642355179486818173e+01,1.032770901162084698e+01,-4.719571391305286312e+01
5.594909112172072696e+01,1.097896042548580908e+01,-4.746200427133867095e+01
5.544656556323660368e+01,1.161367397712929517e+01,-4.774102073184116790e+01
5.491632137057128915e+01,1.223098156693889216e+01,-4.803225196605216496e+01
5.435872040454886900e+01,1.283003205189679541e+01,-4.833516146815644277e+01
5.377414623356028045e+01,1.340999812293100391e+01,-4.864918751451716616e+01
5.316299805281545332e+01,1.397007436516054035e+01,-4.897374700606020070e+01
5.252569550002610299e+01,1.450947510877726465e+01,-4.930823322424798505e+01
5.186267526856477872e+01,1.502744387213175159e+01,-4.965201750278595227e+01
5.117439257782508832e+01,1.552324277548034459e+01,-5.000445043661679279e+01
5.046131773425706513e+01,1.599616453233017843e+01,-5.036486379112620426e+01
4.972393970115643924e+01,1.644552660734125737e+01,-5.073256649185234579e+01
4.896276475715151122e+01,1.687067230229990500e+01,-5.110685402519960263e+01
4.817831455950116037e+01,1.727097503746372453e+01,-5.148699934539338585e+01
4.737112372021053375e+01,1.764583428632178652e+01,-5.187226367043356134e+01
4.654175104248653128e+01,1.799468043226033132e+01,-5.226188773196540183e+01
4.569075942873138274e+01,1.831697304900884404e+01,-5.265510157967512583e+01
4.481873570870369150e+01,1.861220197066492688e+01,-5.305111918852667685e+01
4.392627591648760443e+01,1.887988904480684127e+01,-5.344914398825167012e+01
4.301399248256344521e+01,1.911958645201675822e+01,-5.384836490009281817e+01
4.208250955466434817e+01,1.933087830081537462e+01,-5.424796584729570270e+01
4.113246674572464912e+01,1.951338253087715557e+01,-5.464711402948085350e+01
4.016451420288510121e+01,1.966674881835579214e+01,-5.504497390346077168e+01
3.917931579177751189e+01,1.979066007163602592e+01,-5.544070060503552355e+01
3.817754689740115737e+01,1.988483381255285209e+01,-5.583344409026334887e+01
3.715989374859549343e+01,1.994901916742482229e+01,-5.622234668603282870e+01
3.612705447454059993e+01,1.998300109731386343e+01,-5.660654945271651428e+01
3.507973485807974612e+01,1.998659854860350649e+01,-5.698519010732257328e+01
3.401865508930969639e+01,1.995966491549644672e+01,-5.735740451910550064e+01
3.294454188373160264e+01,1.990208807892078013e+01,-5.772232784995943433e+01
3.185812988247728939e+01,1.981379127250773564e+01,-5.807909617006962577e+01
3.076016584587754110e+01,1.969473170805742512e+01,-5.842684678090044770e+01
2.965140066660338647e+01,1.954489966257602873e+01,-5.876472067974198410e+01
2.853259470355898486e+01,1.936432491684833224e+01,-5.909186212235696445e+01
2.740451466066998520e+01,1.915306478975372428e+01,-5.940742073221544928e+01
2.626793362521334529e+01,1.891121808569726426e+01,-5.971055434889316160e+01
2.512363130799082711e+01,1.863891467483809805e+01,-6.000042358394280484e+01
2.397239041832531115e+01,1.833631819364011051e+01,-6.027620315646944960e+01
2.281500249671847058e+01,1.800362740904742154e+01,-6.053707403217899952e+01
2.165225719542324256e+01,1.764107249154058721e+01,-6.078222791908157774e+01
2.048495411889479456e+01,1.724891931079324792e+01,-6.101086963707594890e+01
1.931389316867815609e+01,1.682746719749265552e+01,-6.122221704544437415e+01
1.813987482303550181e+01,1.637704486594678954e+01,-6.141550119906062832e+01
1.696370608798714130e+01,1.589801593625875320e+01,-6.158996762241459777e+01
1.578619208070364266e+01,1.539077390922821387e+01,-6.174487840962963503e+01
1.460813959776878868e+01,1.485574455715943643e+01,-6.187951342209321837e+01
1.343035656189135274e+01,1.429338335359246059e+01,-6.199317143693356513e+01
1.225364909219472764e+01,1.370417693766830070e+01,-6.208516635051384469e+01
1.107882499652790109e+01,1.308863991284959205e+01,-6.215483494454425539e+01
9.906689155176287898e+00,1.244731623515224506e+01,-6.220153531292714177e+01
8.738043410154645585e+00,1.178077771237317073e+01,-6.222464664231657849e+01
7.573691496330115847e+00,1.108962365512382142e+01,-6.222356929380988078e+01
6.414428574554295714e+00,1.037448032840348588e+01,-6.219772790943677876e+01
5.261050614231374212e+00,9.635998724302410778e+00,-6.214657402116525731e+01
4.114348287641210078e+00,8.874854417968263576e+00,-6.206957970786209700e+01
2.975106585221411581e+00,8.091751137582361864e+00,-6.196624618971959109e+01
1.844106845823835883e+00,7.287409583979944649e+00,-6.183609988471412322e+01
7.221233904281882943e-01,6.462578080850818196e+00,-6.167869577918413171e+01
-3.900726706596078230e-01,5.618022585667970858e+00,-6.149361475997879012e+01
-1.491721959449862744e+00,4.754532081286483525e+00,-6.128046780387523995e+01
-2.582066898049014902e+00,3.872914064612692275e+00,-6.103889608455103399e+01
-3.660362550732077835e+00,2.973995723839449656e+00,-6.076856698260456113e+01
-4.725867996777276758e+00,2.058619479547949993e+00,-6.046918176019509872e+01
-5.777853473565673248e+00,1.127645831195518422e+00,-6.014047118586972118e+01
-6.815598756497693422e+00,1.819518386343262628e-01,-5.978219421546042867e+01
-7.838392832989175218e+00,-7.775753842935375637e-01,-5.939414719738081772e+01
-8.845533093909356381e+00,-1.750028713506966982e+00,-5.897615599212407744e+01
-9.836330363832445300e+00,-2.734495080606209605e+00,-5.852807525570335656e+01
-1.081010656438418849e+01,-3.730048131341541229e+00,-5.804979863770793713e+01
-1.176619176269119116e+01,-4.735750559439144247e+00,-5.754124811466743949e+01
-1.270393295647379972e+01,-5.750655402815985973e+00,-5.700237928513850960e+01
-1.362268579130889812e+01,-6.773812161325388104e+00,-5.643318382329771055e+01
-1.452182250758429660e+01,-7.804259292805970638e+00,-5.583368362425882481e+01
-1.540072577837385914e+01,-8.841033429651769637e+00,-5.520393608162783750e+01
-1.625879359599787932e+01,-9.883164183540289471e+00,-5.454403149373739979e+01
-1.709543700302005576e+01,-1.092967867314565744e+01,-5.385409474781044992e+01
-1.791008297538369831e+01,-1.197960380472322228e+01,-5.313428382195647259e+01
-1.870217367135778375e+01,-1.303196395181747924e+01,-5.238478928558115655e+01
-1.947116663845557838e+01,-1.408578430840417184e+01,-5.160583609055901633e+01
-2.021653321302175854e+01,-1.514009336443294096e+01,-5.079768413081883693e+01
-2.093776427600646528e+01,-1.619391947436891499e+01,-4.996062319175041466e+01
-2.163436455841888417e+01,-1.724629682627539751e+01,-4.909497815751351624e+01
-2.230585762720199483e+01,-1.829626399545299265e+01,-4.820110651749132558e+01
-2.295178119007441708e+01,-1.934286634835522278e+01,-4.727939723297951247e+01
-2.357169481077680118e+01,-2.038515699769523692e+01,-4.633027361139934186e+01
-2.416517299860990420e+01,-2.142219400381513950e+01,-4.535418622610242778e+01
-2.473180848370241236e+01,-2.245305023307845005e+01,-4.435162198675711664e+01
-2.527121266509079689e+01,-2.347680617265750058e+01,-4.332309390093306689e+01
-2.578301634558562228e+01,-2.449255385641035332e+01,-4.226915050615998837e+01
-2.626687038243669647e+01,-2.549939864540960244e+01,-4.119036464346515203e+01
-2.672243973475383783e+01,-2.649646151775450065e+01,-4.008734258349254276e+01
-2.714941475276744143e+01,-2.748287363220115154e+01,-3.896071668929743481e+01
-2.754750291421402508e+01,-2.845778843395817859e+01,-3.781114729396689711e+01
-2.791642859737939730e+01,-2.942037090817008860e+01,-3.663932628858790963e+01
-2.825594276994323906e+01,-3.036980701954666628e+01,-3.544596496819796272e+01
-2.856581037732542683e+01,-3.130529927525472900e+01,-3.423180584662224391e+01
-2.884581966404921971e+01,-3.222607093978312776e+01,-3.299761543384817486e+01
-2.909577790091333682e+01,-3.313136729647656864e+01,-3.174418345667592334e+01
-2.931551508404142936e+01,-3.402045288229834341e+01,-3.047232312528285547e+01
-2.950488035416140420e+01,-3.489261421980471312e+01,-2.918287250739647476e+01
-2.966374319215564981e+01,-3.574716447813343478e+01,-2.787668853512502309e+01
-2.979199519767928805e+01,-3.658343541934052467e+01,-2.655464983721624606e+01
-2.988954870872046499e+01,-3.740078902545333506e+01,-2.521765597737895348e+01
-2.995633615068416944e+01,-3.819860748652119042e+01,-2.386662346906197385e+01
-2.999231271826296563e+01,-3.897630365408747366e+01,-2.250248956642846210e+01
-2.999745266746336014e+01,-3.973331355347021088e+01,-2.112620450951543916e+01
-2.997175395304357792e+01,-4.046910260728182607e+01,-1.973873741638437807e+01
-2.991523250325404959e+01,-4.118316227697891208e+01,-1.834107207901839232e+01
-2.982792762448630697e+01,-4.187501486440545762e+01,-1.693420345614974565e+01
-2.970990007692639168e+01,-4.254420876913348337e+01,-1.551914319671483256e+01
-2.956122959476389056e+01,-4.319032510576322181e+01,-1.409690995784149337e+01
-2.938201827986359760e+01,-4.381297114371095347e+01,-1.266853672410789322e+01
-2.917238940036232364e+01,-4.441178883197660809e+01,-1.123506318003133586e+01
-2.893248672754002371e+01,-4.498644625614663539e+01,-9.797537078547723155e+00
-2.866247387661267609e+01,-4.553664491428475714e+01,-8.357015982221319916e+00
-2.836253688872748313e+01,-4.606211735664494711e+01,-6.914560541877684763e+00
-2.803287992629281788e+01,-4.656262721668371540e+01,-5.471235542083177528e+00
-2.767373118627013540e+01,-4.703797065973246561e+01,-4.028113795308388312e+00
-2.728533448981472276e+01,-4.748797510790392096e+01,-2.586263147480104330e+00
-2.686795715721880384e+01,-4.791249831807540005e+01,-1.146758924095087284e+00
-2.642188445516522677e+01,-4.831143279857848682e+01,2.893277678004923525e-01
-2.594742350671721454e+01,-4.868470408247826953e+01,1.720924867188399210e+00
-2.544489863590746381e+01,-4.903226343182109304e+01,3.146963330384441093e+00
-2.491465348726184459e+01,-4.935410215322895766e+01,4.566377705725787273e+00
-2.435705392894938370e+01,-4.965023844318615431e+01,5.978109403876953110e+00
-2.377247872522011463e+01,-4.992072344517286098e+01,7.381103155986646236e+00
-2.316133047066269413e+01,-5.016564236622553352e+01,8.774311221509401904e+00
-2.252402803217913529e+01,-5.038510880432142613e+01,1.015669760247581976e+01
-2.186100874824846230e+01,-5.057926926616978136e+01,1.152723137462838032e+01
-2.117272449364706333e+01,-5.074830026777974723e+01,1.288489562940562116e+01
-2.045965028905943583e+01,-5.089241093090726054e+01,1.422868345302913617e+01
-1.972227275148030401e+01,-5.101184013071222267e+01,1.555760220463402099e+01
-1.896109752089050815e+01,-5.110685446443891777e+01,1.687067242417719726e+01
-1.817664645720234873e+01,-5.117775336036640965e+01,1.816693181791293554e+01
-1.736945756699136112e+01,-5.122486162210669391e+01,1.944543034782137525e+01
-1.654008387055127471e+01,-5.124853833487487265e+01,2.070524002483847781e+01
-1.568909271848318454e+01,-5.124916467543605592e+01,2.194544729771940084e+01
-1.481706858066605648e+01,-5.122715253834821425e+01,2.316516200763083333e+01
-1.392460959037721402e+01,-5.118294018254709954e+01,2.436351181944226951e+01
-1.301232488120129993e+01,-5.111699214617581788e+01,2.553964457563224499e+01
-1.208084245772394461e+01,-5.102979734435288606e+01,2.669273376803333875e+01
-1.113079908006528917e+01,-5.092187224358112729e+01,2.782197329713778799e+01
-1.016284751701835098e+01,-5.079375422977456367e+01,2.892658399366026245e+01
-9.177649083644160655e+00,-5.064600727644798184e+01,3.000580897177782091e+01
-8.175880046474814478e+00,-5.047921460498698565e+01,3.105891913010801986e+01
-7.158225909070106141e+00,-5.029398431096763744e+01,3.208521187388866025e+01
-6.125386286810847736e+00,-5.009094432788289453e+01,3.308401010645579987e+01
-5.078067721600058704e+00,-4.987074152381396885e+01,3.405466799387587429e+01
-4.016988493194827647e+00,-4.963404441770581599e+01,3.499656723231992572e+01
-2.942874389694674075e+00,-4.938153693143567580e+01,3.590911711283479235e+01
-1.856462866158018032e+00,-4.911392115138633585e+01,3.679176131982712405e+01
-7.584988986823675283e-01,-4.883191741528881380e+01,3.764397161958693516e+01
3.502664345630214782e-01,-4.853625972883021689e+01,3.846525137452164245e+01
1.469072481426356269e+00,-4.822769558562491454e+01,3.925513781255189372e+01
2.597152880739038050e+00,-4.790698865779846471e+01,4.001319762836386928e+01
3.733732991197500350e+00,-4.757491242829397748e+01,4.073903324709782225e+01
4.878036352993526670e+00,-4.723225154321861652e+01,4.143227839463209961e+01
6.029276420313440354e+00,-4.687980328913934613e+01,4.209260237591727360e+01
7.186665521056407435e+00,-4.651837200605770306e+01,4.271970939067980311e+01
8.349410244677786253e+00,-4.614877033871538003e+01,4.331333391148513101e+01
9.516713011422281099e+00,-4.577181703566042614e+01,4.387324923137860821e+01
1.068777432826167306e+01,-4.538833877163673236e+01,4.439926242142776402e+01
1.186179194313809759e+01,-4.499916626401668651e+01,4.489121577884084502e+01
1.303796090477444203e+01,-4.460513244083516327e+01,4.534898604538255285e+01
1.421547499867365971e+01,-4.420707411274126741e+01,4.577248567353188946e+01
1.539352811743085958e+01,-4.380582825971462313e+01,4.616166298857688588e+01
1.657131102136094469e+01,-4.340223274916824892e+01,4.651650220881963094e+01
1.774801801390455935e+01,-4.299712508968620739e+01,4.683702150115392016e+01
1.892284166731785078e+01,-4.259133949065405744e+01,4.712327669982362011e+01
2.009497808160484666e+01,-4.218570724427076613e+01,4.737535652211123249e+01
2.126362269328999233e+01,-4.178105599276153015e+01,4.759338720154249103e+01
2.242797635126740730e+01,-4.137820850072036194e+01,4.777752695658656990e+01
2.358723881424316104e+01,-4.097797793209102224e+01,4.792797295090417720e+01
2.474061657846964835e+01,-4.058117259321186765e+01,4.804495248710596655e+01
2.588731928700933338e+01,-4.018859350734781799e+01,4.812872998283167902e+01
2.702656112312995162e+01,-3.980102735208053133e+01,4.817960244772239520e+01
2.815756057909320376e+01,-3.941925256498638674e+01,4.819790087363958264e+01
2.927954300854406000e+01,-3.904403646242278825e+01,4.818398989664675014e+01
3.039173972468082141e+01,-3.867613242960094766e+01,4.813826484131740813e+01
3.149338835541431436e+01,-3.831627924682496200e+01,4.806115552486615883e+01
3.258373420691000177e+01,-3.796520116592978411e+01,4.795312075492221027e+01
3.366202930522387504e+01,-3.762360603820455651e+01,4.781465194388543694e+01
3.472753501609380322e+01,-3.729218750900599844e+01,4.764627228996628361e+01
3.577952122832202519e+01,-3.697161736838690160e+01,4.744853145439493858e+01
3.681726643035467106e+01,-3.666255070011926165e+01,4.722201006618654162e+01
3.784006026935451672e+01,-3.636562305625137981e+01,4.696731751361257778e+01
3.884720059683176174e+01,-3.608144831273168052e+01,4.668508852527514819e+01
3.983799787963565819e+01,-3.581062065188570642e+01,4.637598892139105544e+01
4.081177270132209145e+01,-3.555370941601960766e+01,4.604070674171700261e+01
4.176785909961717635e+01,-3.531126327546707699e+01,4.567995538411593515e+01
4.270559939960003959e+01,-3.508380685633097329e+01,4.529447504937996172e+01
4.362435316703363952e+01,-3.487183899554059252e+01,4.488502709813621294e+01
4.452348998793235779e+01,-3.467583319815487641e+01,4.445239715758826549e+01
4.540239290995077681e+01,-3.449624047538217297e+01,4.399739040181555794e+01
4.626045989407145242e+01,-3.433348083018064756e+01,4.352083549602091495e+01
4.709710370484739883e+01,-3.418795016316154545e+01,4.302357747804546761e+01
4.791175005040553714e+01,-3.406001387956315796e+01,4.250648288192435587e+01
4.870384079467716276e+01,-3.395001273808917119e+01,4.197043374694064966e+01
4.947283393768187665e+01,-3.385825643424354325e+01,4.141632880595251720e+01
5.021820054988432958e+01,-3.378502550539858618e+01,4.084508426736326214e+01
5.093943132914549210e+01,-3.373057146817230745e+01,4.025762821567749938e+01
5.163603199927231202e+01,-3.369511479527622555e+01,3.965490422663028625e+01
5.230752443117361850e+01,-3.367884885189469202e+01,3.903786462139114377e+01
5.295344840486493609e+01,-3.368193186483962620e+01,3.840747746520832351e+01
5.357336237585555949e+01,-3.370449417219328581e+01,3.776471688891945888e+01
5.416684021195754895e+01,-3.374663363228411583e+01,3.711056752047882412e+01
5.473347483217286680e+01,-3.380841844588780987e+01,3.644602052492671618e+01
5.527287993039730907e+01,-3.388988269097442441e+01,3.577207376463331201e+01
5.578468401226560047e+01,-3.399102998806333176e+01,3.508973175048458870e+01
5.626853693267426593e+01,-3.411183267537146691e+01,3.439999994224114488e+01
5.672410670596455162e+01,-3.425223174039420115e+01,3.370388947591507645e+01
5.715108209784870752e+01,-3.441213424655138908e+01,3.300241108951515656e+01
5.754916928826737887e+01,-3.459141953037890715e+01,3.229657803029149932e+01
5.791809616151079609e+01,-3.478993064219496745e+01,3.158740098563317744e+01
5.825760975790357321e+01,-3.500748301159448772e+01,3.087588971642648517e+01
5.856747730913390626e+01,-3.524385720176722003e+01,3.016305035079741970e+01
5.884748643572901727e+01,-3.549880638277087286e+01,2.944988535921778450e+01
5.909744569214151966e+01,-3.577204985131781001e+01,2.873738959890513200e+01
5.931718181770366272e+01,-3.606327825661176689e+01,2.802655416211913675e+01
5.950654728709487529e+01,-3.637215077129895491e+01,2.731836266668136304e+01
5.966541021139212830e+01,-3.669829940454301465e+01,2.661378656940171439e+01
5.979366246703514065e+01,-3.704132150182377359e+01,2.591378903156354241e+01
5.989121599973106669e+01,-3.740078891107181391e+01,2.521932340942781892e+01
5.995800271572266382e+01,-3.777624576650486432e+01,2.453132824534549883e+01
5.999398018612382799e+01,-3.816720614434515824e+01,2.385073041832861307e+01
5.999912010525711281e+01,-3.857315610692812413e+01,2.317844260695577674e+01
5.997342066946985284e+01,-3.899355724189679506e+01,2.251536068519168410e+01
5.991689956719960719e+01,-3.942784283962878789e+01,2.186236400979780115e+01
5.982959496483668715e+01,-3.987542089544297852e+01,2.122031699887238076e+01
5.971156688692279602e+01,-4.033567476699048626e+01,2.059006315900985129e+01
5.956289613859861021e+01,-4.080796500443442199e+01,1.997242612431823972e+01
5.938368555130858084e+01,-4.129162448173872235e+01,1.936821163917049660e+01
5.917405646499478422e+01,-4.178596773092732519e+01,1.877820178992343614e+01
5.893415362847166961e+01,-4.229028575700638015e+01,1.820315795362226652e+01
5.866414101717419527e+01,-4.280384699490844014e+01,1.764381743349542475e+01
5.836420371993298772e+01,-4.332590135651819452e+01,1.710089613218030991e+01
5.803454740266121803e+01,-4.385568012228578283e+01,1.657507983993199474e+01
5.767539832165244462e+01,-4.439239438455777531e+01,1.606703608628821556e+01
5.728700204495012827e+01,-4.493523889695270412e+01,1.557739995121488796e+01
5.686962455291897811e+01,-4.548339020120137377e+01,1.510678391394058195e+01
5.642355199288426348e+01,-4.603601263965216361e+01,1.465577090804942983e+01
5.594909094666925142e+01,-4.659225332759005767e+01,1.422491637633584816e+01
5.544656552360851265e+01,-4.715124594856953877e+01,1.381474608104960211e+01
5.491632135711750351e+01,-4.771211307373665278e+01,1.342575766851236807e+01
5.435872005900579040e+01,-4.827396537585794078e+01,1.305841855782927929e+01
5.377414562889904914e+01,-4.883590306781795931e+01,1.271316673522239604e+01
5.316299774427780989e+01,-4.939701738647357843e+01,1.239040711256772553e+01
5.252569628050920869e+01,-4.995639170960979669e+01,1.209051451804633004e+01
5.186267556287897662e+01,-5.051310171819972084e+01,1.181383328612465888e+01
5.117439268795157403e+01,-5.106621755704008336e+01,1.156067501342453596e+01
5.046131681490287235e+01,-5.161480488199943295e+01,1.133131902249421863e+01
4.972393957736537828e+01,-5.215792669412714133e+01,1.112601239973400880e+01
4.896276507648859422e+01,-5.269464237601380319e+01,1.094496816421478158e+01
4.817831382515499428e+01,-5.322400895530671505e+01,1.078836917041736854e+01
4.737112457240667140e+01,-5.374508706988424933e+01,1.065636313684289682e+01
4.654175093280989017e+01,-5.425693414278161697e+01,1.054906555322736494e+01
4.569076040180565457e+01,-5.475861347687357039e+01,1.046655877646733224e+01
4.481873576734832909e+01,-5.524918866617613133e+01,1.040889197230149676e+01
4.392627644851030055e+01,-5.572773208800667533e+01,1.037608083671184112e+01
4.301399229678353464e+01,-5.619331680390935446e+01,1.036810697631792699e+01
4.208250991533609664e+01,-5.664502681205728862e+01,1.038492289673639668e+01
4.113246693280447630e+01,-5.708195215106044884e+01,1.042644396676897145e+01
4.016451375371984511e+01,-5.750319192401322965e+01,1.049255564737625512e+01
3.917931630233805862e+01,-5.790785696720775633e+01,1.058310792968956271e+01
3.817754682646467046e+01,-5.829506914683925345e+01,1.069792384617709757e+01
3.715989415335146617e+01,-5.866396082193204364e+01,1.083678930558584241e+01
3.612705372557012851e+01,-5.901368151661407779e+01,1.099946120862337118e+01
3.507973508734124835e+01,-5.934339264530354541e+01,1.118566568394925298e+01
3.401865558237101794e+01,-5.965227365439070439e+01,1.139509763850175261e+01
3.294454201957888984e+01,-5.993951883191564178e+01,1.162742182216492282e+01
3.185813035235103996e+01,-6.020434023628045139e+01,1.188227352732223530e+01
3.076016574476254917e+01,-6.044597100176817861e+01,1.215925844518893584e+01
2.965140166715622883e+01,-6.066366275156955368e+01,1.245795289233961078e+01
2.853259484100127708e+01,-6.085668710860751673e+01,1.277790652178339137e+01
2.740451414942343433e+01,-6.102433974098979519e+01,1.311864157548181531e+01
2.626793344701937016e+01,-6.116593748329820102e+01,1.347965346977153622e+01
2.512363020641117828e+01,-6.128082021231161036e+01,1.386041053388795774e+01
2.397239020161806167e+01,-6.136835387387188945e+01,1.426035589254686187e+01
2.281500119136373783e+01,-6.142792868138508311e+01,1.467891096610016355e+01
2.165225730470352872e+01,-6.145896130645176925e+01,1.511546926517947043e+01
2.048495392261765602e+01,-6.146089476440813115e+01,1.556940461938296671e+01
1.931389204874095711e+01,-6.143320027636256953e+01,1.604006761285112148e+01
1.813987508792712333e+01,-6.137537761344865572e+01,1.652678570627072219e+01
1.696370657361514489e+01,-6.128695508388955915e+01,1.702887010694198366e+01
1.578619192231637491e+01,-6.116749198223243411e+01,1.754560960132336689e+01
1.460813966431748412e+01,-6.101657489813496227e+01,1.807627648452373847e+01
1.343035552272068145e+01,-6.083382427408690774e+01,1.862012487141912231e+01
1.225364948085112893e+01,-6.061889099052861241e+01,1.917638989197913446e+01
1.107882492602959701e+01,-6.037145804306793195e+01,1.974429535512398459e+01
9.906689687687862289e+00,-6.009123959373898316e+01,2.032304823215574530e+01
8.738044221819741608e+00,-5.977798510248242536e+01,2.091184288635179556e+01
7.573691137593834277e+00,-5.943147524591326913e+01,2.150986122267470790e+01
6.414428060842514157e+00,-5.905152424883664963e+01,2.211627313475632306e+01
5.261050597358392977e+00,-5.863798212959473943e+01,2.273023938062736349e+01
4.114348591051969706e+00,-5.819073198589732954e+01,2.335091173748822158e+01
2.975106223003828987e+00,-5.770969024524504931e+01,2.397743355994681380e+01
1.844107432197350738e+00,-5.719481012099156203e+01,2.460894032504567619e+01
7.221242396461412527e-01,-5.664607740804029845e+01,2.524456383571655138e+01
-3.900727026010943344e-01,-5.606351538307288251e+01,2.588342989896141333e+01
-1.491721528805449726e+00,-5.544717907279081004e+01,2.652466094844663402e+01
-2.582067507938972550e+00,-5.479716340301217059e+01,2.716737828709395330e+01
-3.660362914301238835e+00,-5.411359208052919456e+01,2.781069993592207013e+01
-4.725867934810086268e+00,-5.339662910570793031e+01,2.845374642961506240e+01
-5.777853837635532841e+00,-5.264646961400201519e+01,2.909563680059209290e+01
-6.815598962004663086e+00,-5.186334608090886178e+01,2.973549511987264538e+01
-7.838392472955531431e+00,-5.104752564660654457e+01,3.037244526417605783e+01
-8.845533586010658311e+00,-5.019930641282039119e+01,3.100562014940308941e+01
-9.836330662928755686e+00,-4.931902449587894921e+01,3.163415270012933433e+01
-1.081010617274120555e+01,-4.840704835305255926e+01,3.225718833536824803e+01
-1.176619187336164529e+01,-4.746377865908186777e+01,3.287387627877672003e+01
-1.270393282949602565e+01,-4.648965192834712923e+01,3.348337578247688384e+01
-1.362268596297992040e+01,-4.548513587078237919e+01,3.408485698671069741e+01
-1.452182236063401177e+01,-4.445072966309051310e+01,3.467750142951710046e+01
-1.540072561883904889e+01,-4.338696576228269919e+01,3.526049997823332660e+01
-1.625879355871207110e+01,-4.229440704088390390e+01,3.583305920951363532e+01
-1.709543626563506180e+01,-4.117364708606253743e+01,3.639439891785333003e+01
-1.791008273766695069e+01,-4.002530942509186929e+01,3.694375499911419070e+01
-1.870217424101728909e+01,-3.885004743416582329e+01,3.748037876607952512e+01
-1.947116591366454585e+01,-3.764854448812558729e+01,3.800353766674477640e+01
-2.021653363734729325e+01,-3.642150965516247396e+01,3.851251966685276784e+01
-2.093776467669192698e+01,-3.516968074252392285e+01,3.900662929976609661e+01
-2.163436475734290809e+01,-3.389382178886123143e+01,3.948519269668356912e+01
-2.230585744981030771e+01,-3.259472197836033303e+01,3.994755500441637253e+01
-2.295178211803676405e+01,-3.127319728342543215e+01,4.039308490634345361e+01
-2.357169481159851898e+01,-2.993008750248022665e+01,4.082117225137660199e+01
-2.416517296446221863e+01,-2.856625143399193334e+01,4.123122966909855336e+01
-2.473180826898096640e+01,-2.718257741175123954e+01,4.162269493163918810e+01
-2.527121270636727246e+01,-2.577996872652084193e+01,4.199502989067646297e+01
-2.578301696127109821e+01,-2.435935272967181575e+01,4.234772089004862750e+01
-2.626686946114873678e+01,-2.292167376904952647e+01,4.268028185909835770e+01
-2.672243989617597748e+01,-2.146789756215520839e+01,4.299225197305188573e+01
-2.714941479689932180e+01,-1.999900450733798962e+01,4.328319716023972319e+01
-2.754750298588481527e+01,-1.851599178783364508e+01,4.355271310839540178e+01
-2.793957060210478005e+01,-1.683075365957745362e+01,4.331376181859224062e+01
-2.829115126495157995e+01,-1.519174571564337306e+01,4.304236662734823682e+01
-2.860406789007939210e+01,-1.359997458574911100e+01,4.274068924650391210e+01
-2.888013301306397196e+01,-1.205629994308159603e+01,4.241085866481171252e+01
-2.912114291726517123e+01,-1.056143186240783827e+01,4.205496030817307940e+01
-2.932887603084638428e+01,-9.115945447755363418e+00,4.167503998550481725e+01
-2.950508859558540919e+01,-7.720281150720125218e+00,4.127308499931889685e+01
-2.965151241377782299e+01,-6.374755252896127544e+00,4.085103130929532966e+01
-2.976985304562229828e+01,-5.079564732317620290e+00,4.041075049561419519e+01
-2.986178730663841563e+01,-3.834794987043184111e+00,3.995404946629404463e+01
-2.992895659749149928e+01,-2.640425014651199387e+00,3.948267005732553514e+01
-2.997297406388104335e+01,-1.496336854062919164e+00,3.899827960854967301e+01
-2.999541341957657536e+01,-4.023172161805894098e-01,3.850247547361207978e+01
-2.999781447243379162e+01,6.419327431663349737e-01,3.799677753693707416e+01
-2.998167601110018410e+01,1.636789548732727306e+00,3.748263029255441126e+01
-2.994845904822822291e+01,2.582707773004576435e+00,3.696140316521447033e+01
-2.989958371200514264e+01,3.480209588772005702e+00,3.643438375123875517e+01
-2.983642674318220855e+01,4.329877865826621708e+00,3.590278561944261071e+01
-2.976032449379899703e+01,5.132355550835720592e+00,3.536774143279426852e+01
-2.967257133802362645e+01,5.888337893917854338e+00,3.483030732021920528e+01
-2.957441444637403904e+01,6.598567679439641509e+00,3.429146466807762295e+01
-2.946705807244775599e+01,7.263828531861467042e+00,3.375211639506601813e+01
-2.935166518877567654e+01,7.884946577352754282e+00,3.321309118845103114e+01
-2.922935236190747688e+01,8.462779838033362978e+00,3.267514476302869042e+01
-2.910118930747503185e+01,8.998217083853717213e+00,3.213896204111747323e+01
-2.896820513038603195e+01,9.492172549709824381e+00,3.160515514318749197e+01
-2.883138280837587786e+01,9.945588310456363601e+00,3.107427026839322792e+01
-2.869166339397495236e+01,1.035942006341169197e+01,3.054678727301784136e+01
-2.854994204659280754e+01,1.073464672449311408e+01,3.002311998870665732e+01
-2.840707014348041426e+01,1.107225584143191988e+01,2.950362263370919891e+01
-2.826385910093625142e+01,1.137325150656158179e+01,2.898858971240500892e+01
-2.812107565687714228e+01,1.163864391388287878e+01,2.847825316245587146e+01
-2.797944506102459883e+01,1.186945104191467948e+01,2.797279714028622877e+01
-2.783965291456128810e+01,1.206669815913079802e+01,2.747234917929392850e+01
-2.770234275146387759e+01,1.223141093472860064e+01,2.697698685238803051e+01
-2.756812099363014212e+01,1.236461759378907566e+01,2.648674166018144760e+01
-2.743755151849290996e+01,1.246734879379988215e+01,2.600159710594941131e+01
-2.731116391859960757e+01,1.254063216976316042e+01,2.552149676096819775e+01
-2.718944704558943570e+01,1.258549477290948460e+01,2.504634147376084741e+01
-2.707285652835501111e+01,1.260296093863948919e+01,2.457599603862066573e+01
-2.696180985181345235e+01,1.259404965046307368e+01,2.411028950256208603e+01
-2.685669213023241042e+01,1.255977656647791285e+01,2.364901775692118946e+01
-2.675785234800442680e+01,1.250115462173206815e+01,2.319194473347094032e+01
-2.666560904635371188e+01,1.241918897116160103e+01,2.273880745954280158e+01
-2.658024848348935620e+01,1.231488018456102473e+01,2.228931868900183488e+01
-2.650202455114450473e+01,1.218922342348478693e+01,2.184316341272378637e+01
-2.643116284740429123e+01,1.204320720441414494e+01,2.140000964020235941e+01
-2.636785834905661829e+01,1.187781612103284523e+01,2.095950305021960958e+01
-2.631228019617535097e+01,1.169402661303452362e+01,2.052127339127257244e+01
-2.626456770022816301e+01,1.149281151406541568e+01,2.008493613402460554e+01
-2.622483558375294876e+01,1.127513699828482885e+01,1.965009232605621747e+01
-2.619317491442276946e+01,1.104196446458803571e+01,1.921633607997981841e+01
-2.616964884098076283e+01,1.079424998659943213e+01,1.878324827206557401e+01
-2.615429924569628994e+01,1.053294684672308712e+01,1.835040576402522206e+01
-2.614714479213114373e+01,1.025900250833714189e+01,1.791738055536629304e+01
-2.614818358074859361e+01,9.973361475172994872e+00,1.748374060739094205e+01
-2.615739133288365181e+01,9.676964335422345798e+00,1.704905424876806208e+01
-2.617472485885119937e+01,9.370748917272250011e+00,1.661289071204198819e+01
-2.620012230476379500e+01,9.055652415886658702e+00,1.617482084879770454e+01
-2.623350187812996381e+01,8.732608279804473739e+00,1.573442184644818553e+01
-2.627476631648034200e+01,8.402548615267594556e+00,1.529127625923245581e+01
-2.632380022225028426e+01,8.066405495051936825e+00,1.484497333871463098e+01
-2.638047230346299088e+01,7.725109480849218890e+00,1.439511473665322860e+01
-2.644463762004147256e+01,7.379593069560275609e+00,1.394131392896829524e+01
-2.651613480480723695e+01,7.030786616432682656e+00,1.348319370993672095e+01
-2.659478959948715016e+01,6.679623239540239510e+00,1.302039670388951720e+01
-2.668041602372435150e+01,6.327036821829048918e+00,1.255257789337764507e+01
-2.677281421008098405e+01,5.973962742565747774e+00,1.207941440228542085e+01
-2.687177337980762459e+01,5.621338085017227648e+00,1.160060045844070586e+01
-2.697707112732077661e+01,5.270101412426350329e+00,1.111585361729650856e+01
-2.708847459879073227e+01,4.921193612112000793e+00,1.062491358053868495e+01
-2.720574264339505177e+01,4.575559562977922212e+00,1.012754547116604620e+01
-2.732862126714210760e+01,4.234145888831379878e+00,9.623541359954595364e+00
-2.745685514192139820e+01,3.897901744283146730e+00,9.112721178719771942e+00
-2.759017238197628075e+01,3.567776980211279980e+00,8.594934957124362285e+00
-2.772829764735613622e+01,3.244726459630623783e+00,8.070063378934882792e+00
-2.787094983410336013e+01,2.929706433817602651e+00,7.538021559997686083e+00
-2.801783977687984262e+01,2.623674087003438071e+00,6.998759973499944387e+00
-2.816867194230093929e+01,2.327588462211486409e+00,6.452262853639754603e+00
-2.832314544744151874e+01,2.042409245501080051e+00,5.898555878294866162e+00
-2.848095685115887576e+01,1.769099170077962579e+00,5.337702581766977872e+00
-2.864179419751511446e+01,1.508614478913500756e+00,4.769808022052233198e+00
-2.880534532792822588e+01,1.261916699312862988e+00,4.195020442911524761e+00
-2.897129286545796134e+01,1.029962202946268945e+00,3.613535860203767491e+00
-2.913931342465712149e+01,8.137040379397051382e-01,3.025591303809917587e+00
-2.930908720924439947e+01,6.140901013267622277e-01,2.431476044830757299e+00
-2.948028799516325194e+01,4.320651460866652416e-01,1.831527197650123284e+00
-2.965258706985937209e+01,2.685644174142473584e-01,1.226134153403565685e+00
-2.982565642104288628e+01,1.245148995829833127e-01,6.157375221823280231e-01
-2.999916576298848980e+01,8.336290213521299272e-04,8.335546951753488405e-04
-3.017278633919159603e+01,-1.015771400879968284e-01,-6.180273579267435702e-01
-3.034618571254239328e+01,-1.818274709519854537e-01,-1.240235373468455027e+00
-3.051903546587852034e+01,-2.390466538812810182e-01,-1.865124808462868877e+00
-3.069100456810487643e+01,-2.723820062519287655e-01,-2.491969370962527908e+00
-3.086176461086661149e+01,-2.810047229879260033e-01,-3.119980906893422556e+00
-3.103098929297350139e+01,-2.641075716724371469e-01,-3.748311599341355826e+00
-3.119835368171640866e+01,-2.209162026024539260e-01,-4.376047150569005950e+00
-3.136353379733192526e+01,-1.506836433526151375e-01,-5.002213667473897729e+00
-3.152620945545440279e+01,-5.269974080768360242e-02,-5.625769764808075557e+00
-3.168606550714360637e+01,7.370803665620775935e-02,-6.245610190631671443e+00
-3.184278975079434204e+01,2.291705817454944283e-01,-6.860563405718270502e+00
-3.199606989899375975e+01,4.142719470470898613e-01,-7.469393029325670952e+00
-3.214560361197801086e+01,6.295463954982912780e-01,-8.070796465163031286e+00
-3.229109161908930758e+01,8.754748877212921165e-01,-8.663405522322589647e+00
-3.243223999649880795e+01,1.152477291692993067e+00,-9.245786189241288255e+00
-3.256876038064326906e+01,1.460910917633099215e+00,-9.816440575363825971e+00
-3.270037241281513474e+01,1.801062431193391378e+00,-1.037380648770875702e+01
-3.282680066992700318e+01,2.173149513339719618e+00,-1.091626049111990504e+01
-3.294778082555968268e+01,2.577305951278562546e+00,-1.144211777000264441e+01
-3.306305290512478479e+01,3.013583045361455159e+00,-1.194963367492345974e+01
-3.317236689710195208e+01,3.481943760083263228e+00,-1.243700668705805690e+01
-3.327548347289610575e+01,3.982253459290408859e+00,-1.290238298665932071e+01
-3.337217074740227218e+01,4.514276930633969620e+00,-1.334385745248458832e+01
-3.346220915392809303e+01,5.077672949228101196e+00,-1.375947429488215157e+01
-3.354539234182157514e+01,5.671988210506132333e+00,-1.414723830476435218e+01
-3.362151983692883306e+01,6.296649474667749935e+00,-1.450511095385544813e+01
-3.369040867572797282e+01,6.950960757050243188e+00,-1.483102413856138924e+01
-3.375188584957751203e+01,7.634092841898432624e+00,-1.512287634754786403e+01
-3.380579632659861744e+01,8.345084133728022380e+00,-1.537854606243151068e+01
-3.385199429781068403e+01,9.082830838159342335e+00,-1.559589277790159656e+01
-3.339035240754991207e+01,9.846080366953954055e+00,-1.577276956081059467e+01
-3.292076014496516478e+01,1.062880084981927986e+01,-1.591011916527899572e+01
-3.244312090937702919e+01,1.142935033681860268e+01,-1.600650094304995719e+01
-3.195735879692288606e+01,1.224600042483940854e+01,-1.606052274158178150e+01
-3.146341361647653301e+01,1.307694071131171398e+01,-1.607084331820133372e+01
-3.096124582156857841e+01,1.392027811468630816e+01,-1.603618151582070794e+01
-3.045083565399437475e+01,1.477403269864367807e+01,-1.595531399758420399e+01
-2.993218456991354159e+01,1.563614963427206561e+01,-1.582708331409470759e+01
-2.940531583053500242e+01,1.650448869902480453e+01,-1.565040206044900728e+01
-2.887027402653768249e+01,1.737683326143056206e+01,-1.542425887872406420e+01
-2.832713051787371938e+01,1.825088991156160390e+01,-1.514771962015769624e+01
-2.777597659124507956e+01,1.912428930356942303e+01,-1.481993513963011999e+01
-2.721693439807031822e+01,1.999459115104136941e+01,-1.444014514372640612e+01
-2.665014717867462579e+01,2.085928321671279662e+01,-1.400768337819076415e+01
-2.607578853198731395e+01,2.171578819025590690e+01,-1.352198123567189825e+01
-2.549405991524948334e+01,2.256146270000744991e+01,-1.298257305408628604e+01
-2.490519168883451684e+01,2.339360294622431624e+01,-1.238910302022125620e+01
-2.430944443849259429e+01,2.420944969630619070e+01,-1.174132627937860995e+01
-2.370710905750685882e+01,2.500618923012776662e+01,-1.103911660504580361e+01
-2.309851031503417929e+01,2.578095997185815591e+01,-1.028247083771133674e+01
-2.248400310862973228e+01,2.653085628689174769e+01,-9.471510335623133159e+00
-2.186397813375741705e+01,2.725293556613483759e+01,-8.606489576640109718e+00
-2.123886110439241293e+01,2.794422022565606412e+01,-7.687799844404097804e+00
-2.060911351643362011e+01,2.860170559909963117e+01,-6.715969724343098690e+00
-1.972523227485635289e+01,2.922236739337349931e+01,-5.691672536691299022e+00
-1.867247204911722491e+01,2.980249518838549605e+01,-4.620065745859577078e+00
-1.753196464771192353e+01,3.033919306667410609e+01,-3.505273638618296772e+00
-1.638904407843283906e+01,3.083016423183730126e+01,-2.350279320648730685e+00
-1.524436138636982818e+01,3.127347426358998206e+01,-1.156699081663024042e+00
-1.409860871415039973e+01,3.166727680803181855e+01,7.378403688665097215e-02
-1.295251975533616928e+01,3.200981240890752844e+01,1.339422203988148929e+00
-1.180687103198778409e+01,3.229941633084607133e+01,2.638409156721966298e+00
-1.066247885316141009e+01,3.253451915027781638e+01,3.968884057447211955e+00
-9.520207740025051990e+00,3.271365098372346125e+01,5.328936389770845494e+00
-8.380958930826917452e+00,3.283544324260606828e+01,6.716609248336994575e+00
-7.245680734944790480e+00,3.289863137805193816e+01,8.129906300513178863e+00
-6.115367554491865754e+00,3.290206005346220053e+01,9.566797126895885128e+00
-4.991053721311244473e+00,3.284468081278676976e+01,1.102521868809751204e+01
-3.873821450250185539e+00,3.272555828539552891e+01,1.250308304796086034e+01
-2.764796569599065723e+00,3.254387204941567546e+01,1.399828125639138676e+01
-1.665149437216907780e+00,3.229891521423007106e+01,1.550869061163783158e+01
-5.760933582708585021e-01,3.199010442724424053e+01,1.703217788557111945e+01
5.011117324281797458e-01,3.161696821585294970e+01,1.856660215473764453e+01
1.565164170085544315e+00,3.117916604754534049e+01,2.010982416643579995e+01
2.614718824935585051e+00,3.067647319341270773e+01,2.165970979321131296e+01
3.648387713412596600e+00,3.010879556881504016e+01,2.321413383352940940e+01
4.664741297072040993e+00,2.947616076081153480e+01,2.477098775568660827e+01
5.662309548353523958e+00,2.877872870682681139e+01,2.632818288708942234e+01
6.639582634206995237e+00,2.801678208131137993e+01,2.788365359964573287e+01
7.595012741147583846e+00,2.719073929596572015e+01,2.943536824191267698e+01
8.527014313821672076e+00,2.630114650713627356e+01,3.098132838171602899e+01
9.433966783063956640e+00,2.534868088344124359e+01,3.251957583619767433e+01
1.031421732764290233e+01,2.433415251586945516e+01,3.404819613433837588e+01
1.116608009728732753e+01,2.325850514210424436e+01,3.556532823341640182e+01
1.198784103066112117e+01,2.212281288182299832e+01,3.706916207821049625e+01
1.277775761123632314e+01,2.092828476680807981e+01,3.855794692420953851e+01
1.353406582271185421e+01,1.967626430723702313e+01,4.002999628187720305e+01
1.425497674285467120e+01,1.836822614832052736e+01,4.148368994438244073e+01
1.493868678107683223e+01,1.700578185683618671e+01,4.291747920288975138e+01
1.558337440821457065e+01,1.559067153225906743e+01,4.432989332420816453e+01
1.571444766339820021e+01,1.396956560810514603e+01,4.521713165358354303e+01
1.581635989129741482e+01,1.234610727961973708e+01,4.605461500026125066e+01
1.588938461415613723e+01,1.072277036611753509e+01,4.684321355106028761e+01
1.593381467695715159e+01,9.101963634470969566e+00,4.758387767559478476e+01
1.594996142096565350e+01,7.486028050669871980e+00,4.827763315909685815e+01
1.593815725324444088e+01,5.877235549660853486e+00,4.892557358256727440e+01
1.589875298362900757e+01,4.277790534123160349e+00,4.952885469950002317e+01
1.583211772599821821e+01,2.689823164965195801e+00,5.008868917696529621e+01
1.573864006106849622e+01,1.115394940622504993e+00,5.060634483058752409e+01
1.561872658094721977e+01,-4.435105198504362134e-01,5.108313526438948315e+01
1.547280111345652287e+01,-1.984977278810699630e+00,5.152041611206708893e+01
1.530130918219094482e+01,-3.507166198748557839e+00,5.191957937881815610e+01
1.510470934809541532e+01,-5.008311889070558465e+00,5.228205066354706787e+01
1.488347861166403163e+01,-6.486718841907230804e+00,5.260928078983626932e+01
1.463811117801481920e+01,-7.940767687117268103e+00,5.290274470947878172e+01
1.436911900949673182e+01,-9.368908861055921022e+00,5.316393398405200799e+01
1.407702776610728357e+01,-1.076966681329379405e+01,5.339435319139197844e+01
1.376238144264076801e+01,-1.214163547203002302e+01,5.359551581561188272e+01
1.342573804846024466e+01,-1.348347661039397138e+01,5.376893841679149233e+01
1.306767069325592878e+01,-1.479392305248220119e+01,5.391614047844095126e+01
1.268876751174631146e+01,-1.607177140580288821e+01,5.403863644089328488e+01
1.228963172648444946e+01,-1.731588939438946539e+01,5.413792993464048919e+01
1.187087762664663870e+01,-1.852520225648358476e+01,5.421551683589549953e+01
1.140395423221959526e+01,-1.969870235908191702e+01,5.427287677659229814e+01
1.084710313962993311e+01,-2.083636275666272297e+01,5.431111534679256181e+01
1.022261975381460886e+01,-2.193955958497821968e+01,5.433069978481881890e+01
9.545880928939091348e+00,-2.300903893774843212e+01,5.433219219557406632e+01
8.827564843189282584e+00,-2.404513105108151549e+01,5.431622086378999370e+01
8.075168036514300596e+00,-2.504789801029513896e+01,5.428346753306378503e+01
7.294031972561911381e+00,-2.601722179397842893e+01,5.423465094479405479e+01
6.488038424744275723e+00,-2.695288231957846392e+01,5.417051577228318138e+01
5.660079512586619011e+00,-2.785459674182016698e+01,5.409182011193539807e+01
4.812382743100026339e+00,-2.872205009547708698e+01,5.399932915138590062e+01
3.946721274272603885e+00,-2.955491974186503867e+01,5.389381211295079765e+01
3.064565569950287394e+00,-3.035288280376477132e+01,5.377603128858824277e+01
2.167181436841155495e+00,-3.111563341668158955e+01,5.364674640536283334e+01
1.255697940233158283e+00,-3.184288246734763916e+01,5.350670600986519787e+01
3.311535909539183864e-01,-3.253436316571309561e+01,5.335664788107553136e+01
-6.054777148975046819e-01,-3.318983729981044917e+01,5.319729761964372727e+01
-1.553257213143575122e+00,-3.380909058533919875e+01,5.302936940404066490e+01
-2.511276005518061183e+00,-3.439194057080209888e+01,5.285356081202765210e+01
-3.478641179896106106e+00,-3.493822843422414337e+01,5.267055440974662162e+01
-4.454469499773640706e+00,-3.544782941139134635e+01,5.248101798165266274e+01
-5.437887087536587671e+00,-3.592064296856242578e+01,5.228560424493458925e+01
-6.428021831327683344e+00,-3.635659988198884918e+01,5.208494734865533360e+01
-7.424007723797974023e+00,-3.675565791089529455e+01,5.187966609250010919e+01
-8.424977258537257541e+00,-3.711780374013124373e+01,5.167036373379485070e+01
-9.430067406570962874e+00,-3.744305027044867984e+01,5.145762586795405724e+01
-1.043841608470505911e+01,-3.773143712316159792e+01,5.124201785818991084e+01
-1.144916039838730804e+01,-3.798303340461621502e+01,5.102409299860799763e+01
-1.246144434629115949e+01,-3.819792990712394953e+01,5.080438491993000127e+01
-1.347440896929716736e+01,-3.837624954546489420e+01,5.058340976925469334e+01
-1.448720145901040546e+01,-3.851813495062884130e+01,5.036166639946204526e+01
-1.549896942711993297e+01,-3.862375514445968605e+01,5.013963827345200031e+01
-1.650886682049709009e+01,-3.869330440394608672e+01,4.991778927591524706e+01
-1.751604893714095113e+01,-3.872700228651842025e+01,4.969656751554521179e+01
-1.851967714186534764e+01,-3.872508843045839200e+01,4.947640307324936515e+01
-1.951891816909387600e+01,-3.868782937892478202e+01,4.925770894030293334e+01
-2.051294273500267451e+01,-3.861551234423708934e+01,4.904088369306120399e+01
-2.150092935249783110e+01,-3.850844771883691919e+01,4.882630601999499476e+01
-2.248206208181893828e+01,-3.836696656861781918e+01,4.861433817802672763e+01
-2.345553231501542513e+01,-3.819142284544560084e+01,4.840532722837890134e+01
-2.442053900417380063e+01,-3.798218938770409636e+01,4.819960337312193843e+01
-2.537628791973308395e+01,-3.773966367811085831e+01,4.799748129476769520e+01
-2.632199785117385105e+01,-3.746425897351220868e+01,4.779925706148454623e+01
-2.725689145633178612e+01,-3.715641038119733253e+01,4.760521342995193805e+01
-2.818020359538148867e+01,-3.681657179217995690e+01,4.741561493140435601e+01
-2.909117888232464466e+01,-3.644521648708688133e+01,4.723071215712985804e+01
-2.998907271389448681e+01,-3.604283438718242394e+01,4.705074227651168428e+01
-3.087315075562523958e+01,-3.560993755499676894e+01,4.687592266216957881e+01
-3.174269206973287893e+01,-3.514704981330574896e+01,4.670645973345652635e+01
-3.259698436560191226e+01,-3.465471604084724788e+01,4.654254234868121642e+01
-3.343533143513409556e+01,-3.413349686005898320e+01,4.638434621320826068e+01
-3.425704626725271851e+01,-3.358396938551589983e+01,4.623203489292220070e+01
-3.506145975230698042e+01,-3.300672496691261415e+01,4.608575408470765922e+01
-3.584791193186683955e+01,-3.240237118990505394e+01,4.594563735153499096e+01
-3.661575918109888050e+01,-3.177153138421970624e+01,4.581180644756570786e+01
-3.736437327699377420e+01,-3.111484223356149315e+01,4.568436766702986063e+01
-3.809313820888689150e+01,-3.043295486555024709e+01,4.556341501357098167e+01
-3.880145756904221344e+01,-2.972653338459421235e+01,4.544902930694023979e+01
-3.948874543638227408e+01,-2.899625344671365923e+01,4.534128063102826189e+01
-4.015443686190047146e+01,-2.824280699718848453e+01,4.524022613969173534e+01
-4.079797931700654345e+01,-2.746689541786969002e+01,4.514591012897778199e+01
-4.141884039932523365e+01,-2.666923206242267597e+01,4.505836648781758669e+01
-4.201650267394234817e+01,-2.585054080333677362e+01,4.497761726715835096e+01
-4.259046704150056684e+01,-2.501155677945972755e+01,4.490367415203640888e+01
-4.314025168310381986e+01,-2.415302655019537781e+01,4.483653573534905945e+01
-4.366539385823608654e+01,-2.327570459951751403e+01,4.477619557693439134e+01
-4.416544911303667220e+01,-2.238035406045944598e+01,4.472263124794131528e+01
-4.463998967975179966e+01,-2.146774935689697017e+01,4.467581327957772430e+01
-4.508860925189274838e+01,-2.053867067329928986e+01,4.463570235112537432e+01
-4.551091907712825702e+01,-1.959390614385706897e+01,4.460225090327420361e+01
-4.590655047292236191e+01,-1.863425310291896153e+01,4.457539960213543395e+01
-4.627515538469776146e+01,-1.766051427721404465e+01,4.455508300711162661e+01
-4.661640299788365382e+01,-1.667349736830845686e+01,4.454122773348751707e+01
-4.692998448937451883e+01,-1.567401684814058527e+01,4.453374944464188445e+01
-4.721561211063691843e+01,-1.466289343307432169e+01,4.453255873512575391e+01
-4.747301653399345867e+01,-1.364095030714462986e+01,4.453755805101426546e+01
-4.770194862407889502e+01,-1.260901810827976988e+01,4.454864227511654917e+01
-4.790218466851258938e+01,-1.156792708391369651e+01,4.456569797908084496e+01
-4.807351530432941189e+01,-1.051851322582463233e+01,4.458860944452953845e+01
-4.821575617982189499e+01,-9.461614315260117536e+00,4.461724940331031775e+01
-4.832874347751591415e+01,-8.398070165730560532e+00,4.465148797639235312e+01
-4.841233383814424940e+01,-7.328723233519729874e+00,4.469118958055812385e+01
-4.846640685507340152e+01,-6.254417651468573425e+00,4.473621087675768848e+01
-4.849086016160271839e+01,-5.175992892686198665e+00,4.478640551011781668e+01
-4.848561651057753608e+01,-4.094295878005469014e+00,4.484162187606428773e+01
-4.845061683739980651e+01,-3.010167938539616728e+00,4.490170282058883799e+01
-4.838582739469656957e+01,-1.924450257039667322e+00,4.496648781937210515e+01
-4.829123159537291343e+01,-8.379845524974668391e-01,4.503581130010981326e+01
-4.816683682512847753e+01,2.483909063708457654e-01,4.510950541319130735e+01
-4.801267157986389122e+01,1.333840738224684630e+00,4.518739771382790593e+01
-4.782878667043133447e+01,2.417531961250155792e+00,4.526931198261356570e+01
-4.761525031663992280e+01,3.498635991201979767e+00,4.535507040051299299e+01
-4.737215703665777511e+01,4.576326001001077337e+00,4.544449212948366323e+01
-4.709961968122201625e+01,5.649782375175319338e+00,4.553739255254970431e+01
-4.679777259082970886e+01,6.718190660980222439e+00,4.563358667427360871e+01
-4.646677243453832062e+01,7.780738647206558056e+00,4.573288597675232836e+01
-4.610679312438044519e+01,8.836624929838055920e+00,4.583510094880511332e+01
-4.571803503048518991e+01,9.885049941828404130e+00,4.594004163690625830e+01
-4.530071281982334597e+01,1.092522420059822963e+01,4.604751414666636578e+01
-4.485506676707978357e+01,1.195636581441945445e+01,4.615732607788051212e+01
-4.438135431953066501e+01,1.297769874104311683e+01,4.626928263356348481e+01
-4.387985429395405390e+01,1.398845741738064774e+01,4.638319113240829950e+01
-4.335086478519637154e+01,1.498788475927488051e+01,4.649885341893021717e+01
-4.279470393192460875e+01,1.597523358407460314e+01,4.661607611785158412e+01
-4.221170901734620884e+01,1.694976383263641040e+01,4.673466386234738934e+01
-4.160223568703251829e+01,1.791075028695757254e+01,4.685442280345983335e+01
-4.096666005593638005e+01,1.885747491041119872e+01,4.697515789873561687e+01
-4.030537544429694918e+01,1.978923177806145262e+01,4.709667488774365296e+01
-3.961879649710058970e+01,2.070532883115328104e+01,4.721878245328132806e+01
-3.890734969009912447e+01,2.160508229594652008e+01,4.734128864882180210e+01
-3.817148638652921733e+01,2.248782518518775220e+01,4.746400233577637806e+01
-3.741167038152200774e+01,2.335289970630515555e+01,4.758673558711521423e+01
-3.662838441234941911e+01,2.419966297408654654e+01,4.770930140441105038e+01
-3.582212870342920752e+01,2.502748608369033434e+01,4.783151415587802546e+01
-3.499341727571262339e+01,2.583575469564007321e+01,4.795318866976414540e+01
-3.414278387292680605e+01,2.662386817455940857e+01,4.807414737775854974e+01
-3.327077411839270837e+01,2.739123973746640317e+01,4.819420785979151844e+01
-3.237795230282081604e+01,2.813730122352711049e+01,4.831319635263724166e+01
-3.146489465477589675e+01,2.886149684779942959e+01,4.843093688866276381e+01
-3.053219332392135144e+01,2.956328768388637940e+01,4.854725907658094997e+01
-2.958045554000743493e+01,3.024215113922347697e+01,4.866199501472166133e+01
-2.861029991961360608e+01,3.089758227121169298e+01,4.877497909971808099e+01
-2.762235904491873839e+01,3.152909117907677228e+01,4.888604952817114935e+01
-2.661727880187760675e+01,3.213620805005321301e+01,4.899504780039322327e+01
-2.559571729497162806e+01,3.271847642415865920e+01,4.910181735710920492e+01
-2.455834429451170209e+01,3.327546193053444057e+01,4.920620798743574653e+01
-2.350584121752775957e+01,3.380674578414855347e+01,4.930806971520353699e+01
-2.243889839129578689e+01,3.431192745449231296e+01,4.940725960907147396e+01
-2.135821986253268179e+01,3.479062716848491732e+01,4.950363659672447625e+01
-2.026451688331838596e+01,3.524248090188964255e+01,4.959706334050855503e+01
-1.915851116976709534e+01,3.566714616000371052e+01,4.968740804574025560e+01
-1.804093440889133859e+01,3.606429915839177625e+01,4.977454241265220247e+01
-1.691252459380328332e+01,3.643363470673069315e+01,4.985834077075253390e+01
-1.577402898034329581e+01,3.677486819624802195e+01,4.993868324219712918e+01
-1.462620195222310393e+01,3.708773309349903968e+01,5.001545565903160195e+01
-1.346980439099849214e+01,3.737198626341874075e+01,5.008854544826016308e+01
-1.230560281041913484e+01,3.762740076091541397e+01,5.015784563625370396e+01
-1.113437271166282372e+01,3.785377320811466717e+01,5.022325429441079336e+01
-9.956889709455991166e+00,3.805091909923209670e+01,5.028467471382764842e+01
-8.773939478793900903e+00,3.821867341326301215e+01,5.034201251422794599e+01
-7.586307511079790622e+00,3.835689361459402846e+01,5.039517933723549703e+01
-6.394786099962787240e+00,3.846545721478464941e+01,5.044409254183962332e+01
-5.200168610269074954e+00,3.854426155733820281e+01,5.048867371238733881e+01
-4.003251191334635806e+00,3.859322658539768724e+01,5.052884771591598678e+01
-2.804832585469324790e+00,3.861229101127282348e+01,5.056454537096213642e+01
-1.605712645744443501e+00,3.860141602125241889e+01,5.059570341140594962e+01
-4.066924829581788359e-01,3.856058235017260927e+01,5.062226114261847698e+01
7.914285347200340492e-01,3.848979299393636921e+01,5.064416610653029949e+01
1.987846454229631465e+00,3.838907211372907113e+01,5.066136564814584631e+01
3.181764294088988088e+00,3.825846278577429160e+01,5.067381788998306291e+01
4.372382204034470199e+00,3.809802947303142417e+01,5.068148166359805629e+01
5.558903836151025679e+00,3.790785854243775077e+01,5.068432219028952090e+01
6.740534168513452329e+00,3.768805595705880052e+01,5.068230990022860283e+01
7.916484071038667025e+00,3.743874904117476632e+01,5.067541930810618567e+01
9.085964216312357067e+00,3.716008455298812407e+01,5.066363114131386425e+01
1.024819190489843201e+01,3.685223201709942487e+01,5.064692836932176334e+01
1.140238733773078650e+01,3.651537596554936727e+01,5.062530210982610868e+01
1.254777785429606141e+01,3.614972855367287963e+01,5.059874687838468788e+01
1.368359512282952117e+01,3.575551655345751101e+01,5.056726044413581178e+01
1.480907805223592533e+01,3.533298705973063392e+01,5.053084797201488954e+01
1.592347182538008354e+01,3.488240902122016251e+01,5.048951794260349146e+01
1.702602821286767210e+01,3.440406854472190901e+01,5.044328351909281594e+01
1.811600865588957276e+01,3.389827274789252698e+01,5.039216254493762648e+01
1.919268042620648274e+01,3.336534775864714675e+01,5.033617811830556121e+01
2.025532237988588591e+01,3.280563637881267169e+01,5.027535782855634494e+01
2.130322049156553277e+01,3.221950190157272687e+01,5.020973196605450539e+01
2.233567170757476106e+01,3.160732620064998599e+01,5.013933767890573989e+01
2.335198321577799874e+01,3.096950739909469519e+01,5.006421564224929455e+01
2.435147288903228358e+01,3.030646320951633754e+01,4.998441082716577455e+01
2.533346958559235418e+01,2.961862822838672926e+01,4.989997185065870866e+01
2.629731482944369958e+01,2.890645438403578282e+01,4.981095231714262894e+01
2.724236019397976705e+01,2.817040904789877942e+01,4.971741032116351278e+01
2.816797312898842520e+01,2.741097866259298854e+01,4.961940652786433503e+01
2.907353154238946402e+01,2.662866318654820930e+01,4.951700607710515811e+01
2.995842793764802892e+01,2.582398157527023486e+01,4.941028058423033542e+01
3.082206973672823835e+01,2.499746499053548732e+01,4.929930148409127355e+01
3.166387509586956384e+01,2.414966268443056308e+01,4.918414671283954220e+01
3.248328142443912725e+01,2.328113585512715744e+01,4.906489733160253053e+01
3.327973853877718113e+01,2.239246289634438014e+01,4.894163603597476708e+01
3.405271207780291576e+01,2.148423363440772960e+01,4.881445191968142439e+01
3.480168404934652671e+01,2.055705426377985034e+01,4.868343670347245933e+01
3.552615360113900778e+01,1.961154055306660737e+01,4.854868420483690272e+01
3.622563457904109896e+01,1.864832473661892109e+01,4.841029210774433267e+01
3.689965835037612862e+01,1.766804840246782149e+01,4.826836086062733955e+01
3.754777539979756540e+01,1.667136804207538248e+01,4.812299596703547166e+01
3.816955043450246166e+01,1.565894757391314407e+01,4.797430300057401098e+01
3.876457009908812523e+01,1.463146626433794850e+01,4.782239023665370325e+01
3.933243268803407489e+01,1.358960844381151567e+01,4.766737317998668289e+01
3.987276400651528974e+01,1.253407629134020063e+01,4.750936546037703323e+01
4.038520006591239309e+01,1.146557272153716767e+01,4.734848406943741139e+01
4.086940302262521385e+01,1.038481627168513199e+01,4.718484936517881323e+01
4.132504636034126122e+01,9.292532155124776594e+00,4.701858286829864397e+01
4.175183160254626813e+01,8.189451290677949302e+00,4.684980938266320294e+01
4.214947247132901964e+01,7.076315017183413048e+00,4.667865559878679704e+01
4.251770662369752785e+01,5.953871738021977222e+00,4.650525058004203771e+01
4.285629014976529305e+01,4.822874026356689825e+00,4.632972360499272924e+01
4.316500160611592207e+01,3.684083461675923932e+00,4.615220688129306836e+01
4.344363674462422864e+01,2.538264372399397395e+00,4.597283390438516193e+01
4.369201229950240162e+01,1.386187550479189179e+00,4.579174046470713932e+01
4.390996803685817440e+01,2.286293103780152880e-01,4.560906264586662928e+01
4.409736315828046571e+01,-9.336325995835927927e-01,4.542493856231543248e+01
4.425407429748720745e+01,-2.099816803910669716e+00,4.523950711487270837e+01
4.438000465648548243e+01,-3.269134777858148322e+00,4.505290896431830561e+01
4.447507559682295408e+01,-4.440802492027597026e+00,4.486528397428447335e+01
4.453922865011034560e+01,-5.614027954439767321e+00,4.467677473876833716e+01
4.457242818132449713e+01,-6.788022752892383771e+00,4.448752421903785859e+01
4.457465862814233049e+01,-7.961994006958308390e+00,4.429767433003839017e+01
4.454592555305974599e+01,-9.135151301381551292e+00,4.410737086942788210e+01
4.448625664315037653e+01,-1.030670278750021929e+01,4.391675612939383200e+01
4.439569807344128805e+01,-1.147585965152154408e+01,4.372597494303042254e+01
4.427432014066800292e+01,-1.264183109024509122e+01,4.353517188638461732e+01
4.412221262411224387e+01,-1.380383207324772066e+01,4.334449110894190227e+01
4.393948768125802928e+01,-1.496107917641366569e+01,4.315407688117520024e+01
4.372627474072398002e+01,-1.611278959064125615e+01,4.296407293071669642e+01
4.348272740754922694e+01,-1.725818823211967867e+01,4.277462420973546386e+01
4.320901833112276336e+01,-1.839649913854995233e+01,4.258587352201298160e+01
4.290534305472338161e+01,-1.952695600220626915e+01,4.239796454282685545e+01
4.257191496757033633e+01,-2.064879484377422614e+01,4.221103877331358945e+01
4.220896745371725700e+01,-2.176125798735010974e+01,4.202523725279726108e+01
4.181675692689746171e+01,-2.286359402427119036e+01,4.184070137635460895e+01
4.139555740617417712e+01,-2.395505959306894894e+01,4.165756966060111210e+01
4.094566267531879333e+01,-2.503491629437518995e+01,4.147598198206760856e+01
4.046738715606470294e+01,-2.610243412478959968e+01,4.129607481865780727e+01
3.996106340764364973e+01,-2.715689362650043037e+01,4.111798527786364588e+01
3.942704531210445396e+01,-2.819758214659950468e+01,4.094184673157285914e+01
3.886570310516962934e+01,-2.922379613033953660e+01,4.076779281181152470e+01
3.827742687771147700e+01,-3.023484194942894021e+01,4.059595577762652852e+01
3.766262613898635436e+01,-3.123003635736913353e+01,4.042646607765834688e+01
3.702172523996760134e+01,-3.220870837845426848e+01,4.025945052033036831e+01
3.635516914000621114e+01,-3.317019569970923953e+01,4.009503561205653455e+01
3.566342085818893537e+01,-3.411385092270857911e+01,3.993334573250015751e+01
3.494695766134120873e+01,-3.503903210483876052e+01,3.977450401688127357e+01
3.420627554955745353e+01,-3.594511887048107468e+01,3.961862968195831769e+01
3.344188775832032690e+01,-3.683149591390742472e+01,3.946584013603450813e+01
3.265432246843531772e+01,-3.769756688542867096e+01,3.931625301807422090e+01
3.184412202541107106e+01,-3.854274490143474452e+01,3.916997953758554729e+01
3.101184880688349566e+01,-3.936646057398675680e+01,3.902713097044664892e+01
3.015807628303736365e+01,-4.016815758593928365e+01,3.888781510303027744e+01
2.928339445995739254e+01,-4.094729493728812031e+01,3.875213820998577319e+01
2.838840446973821940e+01,-4.170334447614143869e+01,3.862020217760832708e+01
2.747372619823144646e+01,-4.243579853140256830e+01,3.849210735576007636e+01
2.653999107649858757e+01,-4.314416170725953492e+01,3.836795182945760985e+01
2.558784126116395541e+01,-4.382795596712342245e+01,3.824782770154174472e+01
2.461793395915264071e+01,-4.448672116033435486e+01,3.813182734371562077e+01
2.363093752570879147e+01,-4.512001245042559816e+01,3.802003935795203660e+01
2.262753240630380702e+01,-4.572740336186536325e+01,3.791254850073349303e+01
2.160841126881572194e+01,-4.630848278125385065e+01,3.780943551403274938e+01
2.057427275351555096e+01,-4.686286273109307388e+01,3.771078028191749354e+01
1.952583271970788203e+01,-4.739016795883637911e+01,3.761665757633089413e+01
1.846381160945071542e+01,-4.789004340535412751e+01,3.752713873305922476e+01
1.738894008576663097e+01,-4.836215452570777984e+01,3.744229420907517891e+01
1.630195955440632005e+01,-4.880618297664845073e+01,3.736218723113276496e+01
1.520361772256666022e+01,-4.922183069276128720e+01,3.728688077762976860e+01
1.409466979142760401e+01,-4.960881981511967354e+01,3.721643060311360074e+01
1.297588100161745039e+01,-4.996688997183768777e+01,3.715089566621473693e+01
1.184801916360374996e+01,-5.029580321260151266e+01,3.709032291528506420e+01
1.071186189726388527e+01,-5.059533843686897114e+01,3.703476099668731081e+01
9.568190501207844534e+00,-5.086529768193325651e+01,3.698425373313169473e+01
8.417790791054782673e+00,-5.110549962455080930e+01,3.693884151610738087e+01
7.261455161685123727e+00,-5.131578531668407805e+01,3.689855942581525738e+01
6.099978508081174589e+00,-5.149601664652799116e+01,3.686344142919306677e+01
4.934161038952784573e+00,-5.164607530117359602e+01,3.683351607112198423e+01
3.764802036898065474e+00,-5.176586368997318743e+01,3.680880711280871509e+01
2.592708883829005995e+00,-5.185530402518131865e+01,3.678933701024667613e+01
1.418684266676935701e+00,-5.191433980054260644e+01,3.677512277098777815e+01
2.435377414409376773e-01,-5.194293659416578635e+01,3.676617832266320107e+01
-9.319238069592943319e-01,-5.194107760646964067e+01,3.676251309154410052e+01
-2.106891800014979665e+00,-5.190877009071264325e+01,3.676413349266734798e+01
-3.280558650020374944e+00,-5.184603958462293605e+01,3.677104003557928280e+01
-4.452118080425138125e+00,-5.175293448841242849e+01,3.678323396215802177e+01
-5.620762211475009984e+00,-5.162952346189862851e+01,3.680070666337217489e+01
-6.785690284559775520e+00,-5.147589261360602819e+01,3.682345168120254186e+01
-7.946101056033227472e+00,-5.129215320967200142e+01,3.685145465674905552e+01
-9.101197498001114994e+00,-5.107843521599817649e+01,3.688469877491933602e+01
-1.025018311333566423e+01,-5.083488823976998816e+01,3.692316179137428378e+01
-1.139227141199452653e+01,-5.056168374423226197e+01,3.696682223747567519e+01
-1.252667587876970856e+01,-5.025901160771373100e+01,3.701564989098585556e+01
-1.365261720902721621e+01,-4.992708358432837912e+01,3.706961496980538584e+01
-1.476932060025722393e+01,-4.956613009406999737e+01,3.712867965881115850e+01
-1.587602013328360684e+01,-4.917640318621426587e+01,3.719280597429798263e+01
-1.697195449836071290e+01,-4.875817302857778657e+01,3.726195028431645540e+01
-1.805637111155951402e+01,-4.831172766172920774e+01,3.733606743072974865e+01
-1.912852415849416587e+01,-4.783737893513006867e+01,3.741510750800176766e+01
-2.018767698357148177e+01,-4.733545318795909651e+01,3.749901587880186327e+01
-2.123310316357845906e+01,-4.680629823523752009e+01,3.758773546907229246e+01
-2.226408177756484719e+01,-4.625027937675941558e+01,3.768120796573820996e+01
-2.327990634486752697e+01,-4.566778067082327652e+01,3.777936716548293106e+01
-2.427987867393354549e+01,-4.505920431189204578e+01,3.788214755501292075e+01
-2.526331121374057886e+01,-4.442497060987405177e+01,3.798947876377351207e+01
-2.622952760032608310e+01,-4.376551539135184044e+01,3.810128555726293342e+01
-2.717786576097876150e+01,-4.308129448146337381e+01,3.821749270341974380e+01
-2.810767200750553840e+01,-4.237277962018679034e+01,3.833802045945760995e+01
-2.901830822273286614e+01,-4.164045873592588265e+01,3.846278410648904611e+01
-2.990915011297032677e+01,-4.088483460945847980e+01,3.859169882481032943e+01
-3.077958336939301631e+01,-4.010642831324843627e+01,3.872467522481183266e+01
-3.162901078592521742e+01,-3.930577685217492245e+01,3.886162225941808401e+01
-3.245684892966676216e+01,-3.848343078803900852e+01,3.900244525409860330e+01
-3.326252812586120911e+01,-3.763995500555594731e+01,3.914704501477866927e+01
-3.404549619496045665e+01,-3.677593016625340283e+01,3.929532298722052275e+01
-3.480521288665227075e+01,-3.589194968863441915e+01,3.944717659853773739e+01
-3.554115789587731911e+01,-3.498862336919781058e+01,3.960250017824576929e+01
-3.625282520582422308e+01,-3.406657053846694794e+01,3.976118648389590504e+01
-3.693972513353990905e+01,-3.312642591495428235e+01,3.992312358174888942e+01
-3.760138517804536207e+01,-3.216883502336510503e+01,4.008820218108152744e+01
-3.823735056311375047e+01,-3.119445745540139470e+01,4.025630573328031403e+01
-3.884718579919645975e+01,-3.020396013802088930e+01,4.042731816696391434e+01
-3.943046983250472692e+01,-2.919802685713383639e+01,4.060112021561847229e+01
-3.998680203550281931e+01,-2.817734635652147190e+01,4.077759267503052598e+01
-4.051580059850544302e+01,-2.714262103131160941e+01,4.095661057051191278e+01
-4.101710052988840260e+01,-2.609455994262009426e+01,4.113805089724601771e+01
-4.149035850884737187e+01,-2.503388504287752170e+01,4.132178743201881588e+01
-4.193524776768067852e+01,-2.396132440801292773e+01,4.150769290760577945e+01
-4.235146334272707236e+01,-2.287761339793563664e+01,4.169563689928220640e+01
-4.273871694413932687e+01,-2.178349722163282465e+01,4.188549048633077376e+01
-4.309674416271172959e+01,-2.067972744472974256e+01,4.207711962305017295e+01
-4.342529745692510090e+01,-1.956706027768758460e+01,4.227039268948893636e+01
-4.372415093073905723e+01,-1.844626096287385408e+01,4.246517406671490136e+01
-4.399309733202915140e+01,-1.731809928898456974e+01,4.266133009313259095e+01
-4.423195380137834576e+01,-1.618334883526937773e+01,4.285872192041891537e+01
-4.444055310309006046e+01,-1.504278825713304890e+01,4.305721365200447082e+01
-4.461875427016428830e+01,-1.389720151469244414e+01,4.325666725474776086e+01
-4.476642994855994573e+01,-1.274737456631045518e+01,4.345694357152935794e+01
-4.488348206602445600e+01,-1.159409575634195910e+01,4.365790337446983926e+01
-4.496982654449698913e+01,-1.043815722122121770e+01,4.385940706311044579e+01
-4.502540508631330596e+01,-9.280352767176800910e+00,4.406131430859095133e+01
-4.505017737843330394e+01,-8.121477848057438109e+00,4.426348515104937320e+01
-4.504412641529069106e+01,-6.962324289833081714e+00,4.446577709749266916e+01
-4.500725490536375162e+01,-5.803691086975726776e+00,4.466805183760469333e+01
-4.493958828432411678e+01,-4.646371080203706150e+00,4.487016695640077302e+01
-4.484116983790698185e+01,-3.491159336422668957e+00,4.507198241914666426e+01
-4.471206890149406377e+01,-2.338848980873246663e+00,4.527335795509048921e+01
-4.455237023083599013e+01,-1.190230046403118358e+00,4.547415317230765908e+01
-4.436218513980895750e+01,-4.609044047481996448e-02,4.567422877069004983e+01
-4.414164238224852710e+01,1.092783579154737117e+00,4.587344496143922612e+01
-4.389089026077892441e+01,2.225612649579006952e+00,4.607166356751273639e+01
-4.361010320823301356e+01,3.351617835761553366e+00,4.626874707036003542e+01
-4.329947058666218140e+01,4.470026760025957557e+00,4.646455714702582185e+01
-4.295920536095786701e+01,5.580073682298717586e+00,4.665895872824415846e+01
-4.258953932720531554e+01,6.680995060108489980e+00,4.685181562256614285e+01
-4.219072596999943414e+01,7.772036775669888264e+00,4.704299543023548580e+01
-4.176303759608887134e+01,8.852450260471549370e+00,4.723236286708014831e+01
-4.130676623066142383e+01,9.921493251025001570e+00,4.741978748093887930e+01
-4.082222373005941307e+01,1.097843368701686728e+01,4.760513868750863509e+01
-4.030974240398656860e+01,1.202254559828872793e+01,4.778828660197724787e+01
-3.976967211354718046e+01,1.305311324936483963e+01,4.796910590555071963e+01
-3.920238317520225735e+01,1.406942898139461562e+01,4.814746946934305072e+01
-3.860826237437937181e+01,1.507079660171928559e+01,4.832325285596764530e+01
-3.798771679054175365e+01,1.605652811148654990e+01,4.849633531064650072e+01
-3.734117180470958886e+01,1.702594841172781415e+01,4.866659524043800644e+01
-3.666906935983238469e+01,1.797839044994638158e+01,4.883391376210943235e+01
-3.597186981582485288e+01,1.891320364490621131e+01,4.899817454625081581e+01
-3.525005006144247943e+01,1.982974502784739101e+01,4.915926457833215579e+01
-3.450410414127959768e+01,2.072738569691509269e+01,4.931707072626677757e+01
-3.373454141739177459e+01,2.160550992664932224e+01,4.947148354514516910e+01
-3.294189211819497132e+01,2.246351623891683857e+01,4.962239584022765371e+01
-3.212669657038713922e+01,2.330081586807078509e+01,4.976970242804576827e+01
-3.128951291040762683e+01,2.411683255670306991e+01,4.991330060409717362e+01
-3.043091478747996348e+01,2.491100835435374705e+01,5.005308985165917335e+01
-2.955149075812490977e+01,2.568279894993091617e+01,5.018897393225817893e+01
-2.865184175682890455e+01,2.643167331473026493e+01,5.032085824537850982e+01
-2.773258439415016596e+01,2.715711833414482967e+01,5.044864906226607815e+01
-2.679434933996289558e+01,2.785863605684361488e+01,5.057225978428699165e+01
-2.583777659716022157e+01,2.853574554067673930e+01,5.069160415741404080e+01
-2.486352318684684093e+01,2.918798147464254455e+01,5.080659776583131304e+01
-2.387225585350778090e+01,2.981489757457224954e+01,5.091716076187124429e+01
-2.286465356642218083e+01,3.041606244459607211e+01,5.102321589203081942e+01
-2.184140645157356886e+01,3.099106482657287032e+01,5.112469153318847503e+01
-2.080321549575422679e+01,3.153950927402022586e+01,5.122151354544386948e+01
-1.975079136196935892e+01,3.206101917933068535e+01,5.131361646171289692e+01
-1.868485540392063626e+01,3.255523821843962651e+01,5.140093580415820895e+01
-1.760613723421394283e+01,3.302182503071759356e+01,5.148340965722393037e+01
-1.651537536474058854e+01,3.346046076486232579e+01,5.156098268947589247e+01
-1.541331828418838867e+01,3.387084470031567918e+01,5.163359781447053365e+01
-1.430071966361246361e+01,3.425269465051869844e+01,5.170120654819442052e+01
-1.317834243322888099e+01,3.460574777723786610e+01,5.176375913666574036e+01
-1.204695537173397035e+01,3.492976231725993586e+01,5.182121420607687412e+01
-1.090733203447081756e+01,3.522451484414784773e+01,5.187353067546052898e+01
-9.760254744114158498e+00,3.548980512387303321e+01,5.192067124580941595e+01
-8.606509179106122787e+00,3.572544991585866114e+01,5.196260290424399386e+01
-7.446884592675536929e+00,3.593128566245557209e+01,5.199929649510236374e+01
-6.282176679435816702e+00,3.610717282586842458e+01,5.203072647367534387e+01
-5.113182202802755150e+00,3.625298974163533927e+01,5.205686953354707924e+01
-3.940702947755159613e+00,3.636863640400209619e+01,5.207770705037049908e+01
-2.765541859485290743e+00,3.645403241052181187e+01,5.209322544479708483e+01
-1.588502688211410607e+00,3.650911952241219183e+01,5.210341189643897053e+01
-4.103939152163949000e-01,3.653385970322644738e+01,5.210825943808045935e+01
7.679786014351842605e-01,3.652823490610424528e+01,5.210776332869904337e+01
1.945806879304775583e+00,3.649224987884134208e+01,5.210192412641634263e+01
3.122284311535741264e+00,3.642592654931310392e+01,5.209074594577118233e+01
4.296606130684566871e+00,3.632931232313984538e+01,5.207423481850247526e+01
5.467967093521939326e+00,3.620247202542302034e+01,5.205240129009391836e+01
6.635563362687457278e+00,3.604549329336953178e+01,5.202526062571983800e+01
7.798595947351969926e+00,3.585848156495679717e+01,5.199283160865015674e+01
8.956268030655836654e+00,3.564156599054923902e+01,5.195513439893015573e+01
1.010778754920210254e+01,3.539489403048460048e+01,5.191219538115243637e+01
1.125236408226915863e+01,3.511863547467969937e+01,5.186404263788254099e+01
1.238921424263795323e+01,3.481297720655883410e+01,5.181070965065315903e+01
1.351755833676646645e+01,3.447813140883038585e+01,5.175223353831324857e+01
1.463662347717130530e+01,3.411432426448523358e+01,5.168865201955510003e+01
1.574564468397406891e+01,3.372180667794403774e+01,5.162000983009040311e+01
1.684385949407268868e+01,3.330084649516003736e+01,5.154635404267857979e+01
1.793051735049269979e+01,3.285173268047394401e+01,5.146773320410645169e+01
1.900487317491914396e+01,3.237477160587442881e+01,5.138420190405499710e+01
2.006619133617132533e+01,3.187029010070262913e+01,5.129581775275795508e+01
2.111374424788855819e+01,3.133863489712556927e+01,5.120264078817007913e+01
2.214681337463791877e+01,3.078016778350283289e+01,5.110473400059692750e+01
2.316469272600076224e+01,3.019527300498616995e+01,5.100216526604449285e+01
2.416668359073145922e+01,2.958435061519809395e+01,5.089500311461446103e+01
2.515210018329974062e+01,2.894781820958488083e+01,5.078332312871717846e+01
2.612026777171691805e+01,2.828611241332305326e+01,5.066720052567374211e+01
2.707052035188162975e+01,2.759968667989360824e+01,5.054671488014714242e+01
2.800221066564101946e+01,2.688901116158364601e+01,5.042194929379164847e+01
2.891469743353614774e+01,2.615457196914337246e+01,5.029298817564098556e+01
2.980735782867876793e+01,2.539687214264971615e+01,5.015992032585660354e+01
3.067957824106961340e+01,2.461643070574905323e+01,5.002283699238953574e+01
3.153076221415919633e+01,2.381378349607874156e+01,4.988183212397171218e+01
3.236032622705378259e+01,2.298947784078626810e+01,4.973700146294004298e+01
3.316770177886608195e+01,2.214408080259236655e+01,4.958844653531887303e+01
3.395233634998026417e+01,2.127817159246360035e+01,4.943626782174919043e+01
3.471369088726692098e+01,2.039234101220812079e+01,4.928056919082477094e+01
3.545124580830203342e+01,1.948719760971688331e+01,4.912145748821610169e+01
3.616449438847349285e+01,1.856336124647507901e+01,4.895904275076721035e+01
3.685294895107723079e+01,1.762146369120031153e+01,4.879343590179092160e+01
3.751613669879728263e+01,1.666215180015932518e+01,4.862474941287545249e+01
3.815360435450185861e+01,1.568608206159217744e+01,4.845310072449637318e+01
3.876491474071161747e+01,1.469392269453794952e+01,4.827860698036714382e+01
3.934964850745976150e+01,1.368635479135955002e+01,4.810138718859660401e+01
3.990740630313818116e+01,1.266406710596062268e+01,4.792156401797451082e+01
4.043780461988817621e+01,1.162776029623460516e+01,4.773925905535968184e+01
4.094048098860165652e+01,1.057814621533415789e+01,4.755459999736249443e+01
4.141509121802090476e+01,9.515940834190470099e+00,4.736771160723338170e+01
4.186130969838189486e+01,8.441873860387961059e+00,4.717872301950323788e+01
4.227883064439614458e+01,7.356680860200399685e+00,4.698776286490180354e+01
4.266736850363999167e+01,6.261104865005326481e+00,4.679496275446533815e+01
4.302665586627004046e+01,5.155897065602699669e+00,4.660045556788093535e+01
4.335644888699248867e+01,4.041814850697459605e+00,4.640437379142759511e+01
4.365652052223277479e+01,2.919620504208324974e+00,4.620685370289406535e+01
4.392666414322967938e+01,1.790083775538392041e+00,4.600802811816295446e+01
4.416669675709765386e+01,6.539788301675419913e-01,4.580803594036600401e+01
4.437645279320050662e+01,-4.879176073581756867e-01,4.560701295489793239e+01
4.455578856714243585e+01,-1.634821043703800214e+00,4.540509700370800772e+01
4.470458155216938678e+01,-2.785947732083653428e+00,4.520242863819456858e+01
4.482273007182791247e+01,-3.940506684641572388e+00,4.499914465369620586e+01
4.491015348846472222e+01,-5.097708954653069391e+00,4.479538522326966188e+01
4.496679090045250859e+01,-6.256760404883234372e+00,4.459129136295028673e+01
4.499260567700385849e+01,-7.416868173128913000e+00,4.438700125575356736e+01
4.498757773984240060e+01,-8.577234414444395938e+00,4.418265738974542955e+01
4.495171153980160739e+01,-9.737067519107718283e+00,4.397839743828587444e+01
4.488503273022099904e+01,-1.089557119735744273e+01,4.377436343935484331e+01
4.478758589943527824e+01,-1.205195197506618499e+01,4.357069526778909108e+01
4.465943879019603457e+01,-1.320541786251035532e+01,4.336753084617121345e+01
4.450067893892397564e+01,-1.435517736437888381e+01,4.316501311844185551e+01
4.431141561212440649e+01,-1.550044357431552200e+01,4.296327729370497650e+01
4.409177833857500417e+01,-1.664043209429249615e+01,4.276246486407864467e+01
4.384191764665514768e+01,-1.777436061794377054e+01,4.256271192591638197e+01
4.356200397158281135e+01,-1.890145318651270401e+01,4.236415557447352853e+01
4.325223093187397438e+01,-2.002093840544087300e+01,4.216693226131501149e+01
4.291281102966379279e+01,-2.113204645040249829e+01,4.197118012093327621e+01
4.254397523878352416e+01,-2.223401842577269960e+01,4.177702900498972127e+01
4.214597740108207091e+01,-2.332609785984537965e+01,4.158461395910501324e+01
4.171909013084003703e+01,-2.440753796088795013e+01,4.139406804939271467e+01
4.126360701743218584e+01,-2.547759594753317103e+01,4.120552070867610439e+01
4.077983948121654123e+01,-2.653554030764722071e+01,4.101910299133518123e+01
4.026811868528219662e+01,-2.758064500075544601e+01,4.083494099160336077e+01
3.972879691843941430e+01,-2.861219474499640114e+01,4.065316176768585166e+01
3.916224180262550902e+01,-2.962948198634609653e+01,4.047389066462346108e+01
3.856884337537333352e+01,-3.063180932039315607e+01,4.029725015464059368e+01
3.794900877093387237e+01,-3.161849114486612322e+01,4.012336211906051631e+01
3.730316085017322081e+01,-3.258885127154197647e+01,3.995234579571377509e+01
3.663174390752873677e+01,-3.354222369732185172e+01,3.978431763649032149e+01
3.593521768795978488e+01,-3.447795646196349395e+01,3.961939248687419735e+01
3.521405924371006790e+01,-3.539540696895529237e+01,3.945768596410530904e+01
