ref_gyro_x (deg/s),ref_gyro_y (deg/s),ref_gyro_z (deg/s)
1.186095868151435528e+00,-4.500000000000000000e+00,4.489038226169207668e+00
2.275913489600137396e+00,-8.542552301017597216e+00,8.538162850575984564e+00
3.306704558436336150e+00,-1.216415848165721769e+01,1.220222465194074424e+01
4.305826132275312190e+00,-1.539966732820114714e+01,1.552756883597794335e+01
5.293000025588662005e+00,-1.828201093095728069e+01,1.855329764883701671e+01
6.282084323998297748e+00,-2.084206979802743120e+01,2.131240682286263777e+01
7.282459354163509424e+00,-2.310862926717113197e+01,2.383278234219389802e+01
8.300109797351135299e+00,-2.510839877746463600e+01,2.613805835606977368e+01
9.338467746642395539e+00,-2.686607299246419345e+01,2.824834510978211455e+01
1.039906790114556756e+01,-2.840441952758544986e+01,3.018083976529841550e+01
1.148205524001396505e+01,-2.974438239643114201e+01,3.195033446681086886e+01
1.258657692571218867e+01,-3.090519353240603095e+01,3.356963598057134845e+01
1.371108341037725609e+01,-3.190448711403722371e+01,3.504991036273622029e+01
1.485355839068341233e+01,-3.275841313521784315e+01,3.640096480575075333e+01
1.601169307142498610e+01,-3.348174788354517517e+01,3.763147734641512443e+01
1.718301691148134935e+01,-3.408799985182741210e+01,3.874918364551000138e+01
1.836499444356928734e+01,-3.458951020893564277e+01,3.976102865952760368e+01
1.955509572813077668e+01,-3.499754737043654274e+01,4.067328976556500209e+01
2.075084640195733954e+01,-3.532239549115483612e+01,4.149167678923148372e+01
2.194986202014975873e+01,-3.557343689034330225e+01,4.222141342433651090e+01
2.314987039286446802e+01,-3.575922854370441684e+01,4.286730371446838461e+01
2.434872482924725645e+01,-3.588757285514056150e+01,4.343378657769260087e+01
2.554441057577121299e+01,-3.596558296889955386e+01,4.392498078173371567e+01
2.673504624036220179e+01,-3.599974290955739065e+01,4.434472230304212559e+01
2.791888160021404275e+01,-3.599596284984463779e+01,4.469659561463027586e+01
2.909429287889424387e+01,-3.595962980935203035e+01,4.498396013123619497e+01
3.025977633056725935e+01,-3.589565408384559220e+01,4.520997278442146694e+01
3.141394077277433894e+01,-3.580851169745483986e+01,4.537760749432213458e+01
3.255549955380742944e+01,-3.570228315984865475e+01,4.548967214008322912e+01
3.368326231803965243e+01,-3.558068879868184808e+01,4.554882349999785163e+01
3.479612683605067502e+01,-3.544712092476656551e+01,4.555758052872089792e+01
3.589307109076091251e+01,-3.530467307406052413e+01,4.551833625737258870e+01
3.697314575186173613e+01,-3.515616655699368209e+01,4.543336853853760715e+01
3.803546712522947360e+01,-3.500417453210195617e+01,4.530484980852671839e+01
3.907921062903517395e+01,-3.485104380756375519e+01,4.513485600088610283e+01
4.010360482173149421e+01,-3.469891456115771433e+01,4.492537471564604346e+01
4.110792598726619929e+01,-3.454973815646444990e+01,4.467831272628629335e+01
4.209149326832893223e+01,-3.440529322088506348e+01,4.439550288932632327e+01
4.305366432805323029e+01,-3.426720013928795794e+01,4.407871050860035922e+01
4.399383151346037124e+01,-3.413693410585894128e+01,4.372963919667638777e+01
4.491141848931512470e+01,-3.401583686603635925e+01,4.334993626875692740e+01
4.580587730838387728e+01,-3.390512727027921613e+01,4.294119769915410245e+01
4.667668588287476439e+01,-3.380591075184363348e+01,4.250497266659066042e+01
4.752334582172927213e+01,-3.371918783173506995e+01,4.204276771177827499e+01
4.834538059912856767e+01,-3.364586174554970910e+01,4.155605052868214955e+01
4.914233402084788338e+01,-3.358674527901117557e+01,4.104625340938422084e+01
4.991376895675334424e+01,-3.354256689163152316e+01,4.051477636134325166e+01
5.065926630965095967e+01,-3.351397620106163089e+01,3.996298991499764952e+01
5.137842419275557404e+01,-3.350154889432526772e+01,3.939223763897826558e+01
5.207085729016809239e+01,-3.350579112623186262e+01,3.880383837962787652e+01
5.273619637686980610e+01,-3.352714345981236477e+01,3.819908824101651845e+01
5.337408797681807471e+01,-3.356598439859628513e+01,3.757926232116601994e+01
5.398419413972595038e+01,-3.362263355592217096e+01,3.694561621973120680e+01
5.456619231900756262e+01,-3.369735450222454176e+01,3.629938733191799827e+01
5.511977533515680960e+01,-3.379035732734237740e+01,3.564179594294053999e+01
5.564465141049156927e+01,-3.390180095132564730e+01,3.497404613683008279e+01
5.614054426273573029e+01,-3.403179521395338014e+01,3.429732653290453470e+01
5.660719324632695759e+01,-3.418040277019645146e+01,3.361281086269275420e+01
5.704435353163169253e+01,-3.434764081614182629e+01,3.292165839958403950e+01
5.745179631342598725e+01,-3.453348266741929251e+01,3.222501425294338162e+01
5.782930904106544290e+01,-3.473785920992038001e+01,3.152400953790088423e+01
5.817669566372819645e+01,-3.496066024055227217e+01,3.081976143149386971e+01
5.849377688497695971e+01,-3.520173571391093503e+01,3.011337312531353660e+01
5.878039042165807615e+01,-3.546089690907160019e+01,2.940593368428984888e+01
5.903639126284396355e+01,-3.573791752916648790e+01,2.869851782074081470e+01
5.926165192513669666e+01,-3.603253474503470244e+01,2.799218559231633918e+01
5.945606270119353809e+01,-3.634445019297598378e+01,2.728798203198659778e+01
5.961953189881363357e+01,-3.667333093550657708e+01,2.658693671775989031e+01
5.975198606834791804e+01,-3.701881039298933729e+01,2.589006328936770984e+01
5.985337021656469148e+01,-3.738048925308445547e+01,2.519835891872526545e+01
5.992364800542799941e+01,-3.775793636412988263e+01,2.451280374056503319e+01
5.996280193453050344e+01,-3.815068961780441725e+01,2.383436024924912644e+01
5.997083350616802022e+01,-3.855825682574476332e+01,2.316397266739326710e+01
5.994776337225891183e+01,-3.898011659417170449e+01,2.250256629158128518e+01
5.989363146249542069e+01,-3.941571920002487417e+01,2.185104682011319710e+01
5.980849709327566188e+01,-3.986448747160515182e+01,2.121029966741262385e+01
5.969243905710084164e+01,-4.032581767627056024e+01,2.058118926941903482e+01
5.954555569224130807e+01,-4.079908041732523571e+01,1.996455838400764193e+01
5.936796493257484286e+01,-4.128362154187211530e+01,1.936122739021181616e+01
5.915980433758611667e+01,-4.177876306106941229e+01,1.877199358977245680e+01
5.892123110258825136e+01,-4.228380408393167755e+01,1.819763051430110679e+01
5.865242204928849645e+01,-4.279802176554638748e+01,1.763888724112062079e+01
5.835357359687051115e+01,-4.332067227033461876e+01,1.709648772063761868e+01
5.802490171380841133e+01,-4.385099175076454259e+01,1.657113011790291779e+01
5.766664185066241544e+01,-4.438819734172941622e+01,1.606348617083007824e+01
5.727904885413504843e+01,-4.493148817062324696e+01,1.557420056736711445e+01
5.686239686268987015e+01,-4.548004638298684910e+01,1.510389034375062423e+01
5.641697918405394319e+01,-4.603303818345249709e+01,1.465314430581596916e+01
5.594310815494008438e+01,-4.658961489158495084e+01,1.422252247518969703e+01
5.544111498333678156e+01,-4.714891401209896316e+01,1.381255556205112001e+01
5.491134957372307923e+01,-4.771006031882862430e+01,1.342374446601785820e+01
5.435418033557252215e+01,-4.827216695172784711e+01,1.305655980658593229e+01
5.376999397551544035e+01,-4.883433652609756592e+01,1.271144148443508826e+01
5.315919527353282348e+01,-4.939566225315719095e+01,1.238879827479848750e+01
5.252220684355723535e+01,-4.995522907101123167e+01,1.208900745398746857e+01
5.185946887885812373e+01,-5.051211478499966034e+01,1.181241446006016105e+01
5.117143888258971174e+01,-5.106539121636724587e+01,1.155933258852432033e+01
5.045859138387995557e+01,-5.161412535813865077e+01,1.133004272387126221e+01
4.972141763983930929e+01,-5.215738053704390609e+01,1.112479310764773821e+01
4.896042532386751134e+01,-5.269421758030149050e+01,1.094379914368596296e+01
4.817613820063618135e+01,-5.322369598603447827e+01,1.078724324102919851e+01
4.736909578812474564e+01,-5.374487509606683489e+01,1.065527469500973368e+01
4.653985300708646378e+01,-5.425681526982395297e+01,1.054800960685913402e+01
4.568897981832082422e+01,-5.475857905804142689e+01,1.046553084215548424e+01
4.481706084812821445e+01,-5.524923237497039707e+01,1.040788802834000393e+01
4.392469500232240875e+01,-5.572784566775491299e+01,1.037509759146543331e+01
4.301249506917618959e+01,-5.619349508164790308e+01,1.036714283227003364e+01
4.208108731167519068e+01,-5.664526361972546198e+01,1.038397404160524751e+01
4.113111104945533469e+01,-5.708224229575662179e+01,1.042550865518050962e+01
4.016321823079915987e+01,-5.750353127888423188e+01,1.049163144752608545e+01
3.917807299506676344e+01,-5.790824102877552093e+01,1.058219476501382417e+01
3.817635122593747354e+01,-5.829549341990480826e+01,1.069701879771649189e+01
3.715874009583873772e+01,-5.866442285363807230e+01,1.083589188982811713e+01
3.612593760193986014e+01,-5.901417735679817156e+01,1.099857088831175389e+01
3.507865209408817719e+01,-5.934391966540100327e+01,1.118478152938559589e+01
3.401760179506668891e+01,-5.965282829226673300e+01,1.139421886240535464e+01
3.294351431355287474e+01,-5.994009857722489443e+01,1.162654771064791426e+01
3.185712615015904348e+01,-6.020494371865112271e+01,1.188140316845077926e+01
3.075918219693593159e+01,-6.044659578509164533e+01,1.215839113411213113e+01
2.965043523072199250e+01,-6.066430670575304163e+01,1.245708887790804198e+01
2.853164540072158673e+01,-6.085734923865874180e+01,1.277704564453641467e+01
2.740357971069661147e+01,-6.102501791529734021e+01,1.311778328925161219e+01
2.626701149615674780e+01,-6.116662996061506163e+01,1.347879694690950814e+01
2.512271989693436680e+01,-6.128152618723221678e+01,1.385955573309970212e+01
2.397148932553083611e+01,-6.136907186279353965e+01,1.425950347650000083e+01
2.281410893162201248e+01,-6.142865754939258238e+01,1.467805948154798479e+01
2.165137206311082352e+01,-6.145969991404363242e+01,1.511461932048596069e+01
2.048407572411581512e+01,-6.146164250920780603e+01,1.556855565379748008e+01
1.931302003028454806e+01,-6.143395652241535743e+01,1.603921907801844426e+01
1.813900766182126389e+01,-6.137614149406245900e+01,1.652593899987027015e+01
1.696284331461828998e+01,-6.128772600249877911e+01,1.702802453563032259e+01
1.578533314988046676e+01,-6.116826831555998467e+01,1.754476543462241622e+01
1.460728424263206371e+01,-6.101735700774028714e+01,1.807543302568086929e+01
1.342950402949502298e+01,-6.083461154223999046e+01,1.861928118541179344e+01
1.225279975612675898e+01,-6.061968281716561080e+01,1.917554732704961040e+01
1.107797792470565845e+01,-6.037225367520239416e+01,1.974345340868012499e+01
9.905843741850663520e+00,-6.009203937612303292e+01,2.032220695957819601e+01
8.737200567361092851e+00,-5.977878803154082021e+01,2.091100212338543329e+01
7.572849364161052144e+00,-5.943228100136039416e+01,2.150902071683294281e+01
6.413588149831411123e+00,-5.905233325142561540e+01,2.211543330269457641e+01
5.260211450111097697e+00,-5.863879367191038483e+01,2.272940027563953080e+01
4.113509754746787372e+00,-5.819154535604529599e+01,2.335007295963659857e+01
2.974268976068715098e+00,-5.771050583882092866e+01,2.397659471554891297e+01
1.843269910667727052e+00,-5.719562729535640244e+01,2.460810205754547297e+01
7.212877045459428205e-01,-5.664689669867078692e+01,2.524372577694521880e+01
-3.909086778887437830e-01,-5.606433593664310422e+01,2.588259207210038682e+01
-1.492556980617791629e+00,-5.544800188799666074e+01,2.652382368291893400e+01
-2.582902178232663548e+00,-5.479798645719202455e+01,2.716654102862009523e+01
-3.661196993221042195e+00,-5.411441656816300849e+01,2.780986334731373688e+01
-4.726702407961568042e+00,-5.339745411687942322e+01,2.845290983599213064e+01
-5.778688171074542801e+00,-5.264729588276988892e+01,2.909480078952233839e+01
-6.816433297779506795e+00,-5.186417339908798141e+01,2.973465873722925323e+01
-7.839226563915490331e+00,-5.104835278235398022e+01,3.037160957566246111e+01
-8.846366993283677260e+00,-5.020013452105451535e+01,3.100478369614493701e+01
-9.837164337977339912e+00,-4.931985322383090420e+01,3.163331710570867727e+01
-1.081093955136865681e+01,-4.840787732743651617e+01,3.225635254003031349e+01
-1.176702525342725458e+01,-4.746460876479151381e+01,3.287304056699029786e+01
-1.270476618805060376e+01,-4.649048259351193479e+01,3.348254067949084600e+01
-1.362351967209201042e+01,-4.548596658533762138e+01,3.408402237618138741e+01
-1.452265603577780162e+01,-4.445156077693063423e+01,3.467666622875540128e+01
-1.540155905421104343e+01,-4.338779698256286110e+01,3.525966493449937644e+01
-1.625962636966566066e+01,-4.229523826925696284e+01,3.583222435279270712e+01
-1.709626990438081862e+01,-4.117447839499087081e+01,3.639356452427804101e+01
-1.791091626357234290e+01,-4.002614121062008934e+01,3.694292067144236569e+01
-1.870300712838449186e+01,-3.885088002621625236e+01,3.747954417937241800e+01
-1.947199963851228333e+01,-3.764937694256337153e+01,3.800270355547355905e+01
-2.021736676423208223e+01,-3.642234214859518460e+01,3.851168536696540201e+01
-2.093859766758486529e+01,-3.517051318559832396e+01,3.900579515499720884e+01
-2.163519805246449934e+01,-3.389465417904622058e+01,3.948435832425354164e+01
-2.230669050337104409e+01,-3.259555503896753947e+01,3.994672100695153460e+01
-2.295261481259630187e+01,-3.127403062979166037e+01,4.039225090016289244e+01
-2.357252829561753060e+01,-2.993091991064956758e+01,4.082033807542652681e+01
-2.416600609448292047e+01,-2.856708504714534769e+01,4.123039575965223946e+01
-2.473264146898056026e+01,-2.718341049564734035e+01,4.162186108635110315e+01
-2.527204607539158232e+01,-2.578080206118121609e+01,4.199419581626488451e+01
-2.578385023263595954e+01,-2.436018593003971944e+01,4.234688702650500147e+01
-2.626770317562861834e+01,-2.292250767825373714e+01,4.267944776734984913e+01
-2.672327329567222876e+01,-2.146873125709890928e+01,4.299141768588962265e+01
-2.715024836772158423e+01,-1.999983795683994003e+01,4.328236361574863622e+01
-2.754833576436402964e+01,-1.851682534994044005e+01,4.355188013215693132e+01
-2.791726265636897963e+01,-1.702070621499196434e+01,4.379959007168552176e+01
-2.825677619966920773e+01,-1.551250744263803405e+01,4.402514501600394681e+01
-2.856664370864558933e+01,-1.399326892479197149e+01,4.422822573906194066e+01
-2.884665281559657046e+01,-1.246404242846641353e+01,4.440854261714342499e+01
-2.909661161628294934e+01,-1.092589045555190808e+01,4.456583600128600864e+01
-2.931634880144831357e+01,-9.379885089898490236e+00,4.469987655160567641e+01
-2.950571377422482300e+01,-7.827106833069350067e+00,4.481046553311364278e+01
-2.966457675334397592e+01,-6.268643430150048879e+00,4.489743507265945510e+01
-2.979282886208149250e+01,-4.705588687008247284e+00,4.496064837668247804e+01
-2.989038220287540426e+01,-3.139041280409040624e+00,4.499999990950231421e+01
-2.995716991756622605e+01,-1.570103562400349873e+00,4.501541553192710410e+01
-2.999314623321776097e+01,1.196396108036569994e-04,4.500685260000769006e+01
-2.999828649348734189e+01,1.570522225665173632e+00,4.497430002381493352e+01
-2.997258717552375629e+01,3.139998027511350820e+00,4.491777828616607593e+01
-2.991606589238148572e+01,4.707442012887955940e+00,4.483733942127637562e+01
-2.982876138094941609e+01,6.271751488396555274e+00,4.473306695336078320e+01
-2.971073347540247056e+01,7.831827299535361497e+00,4.460507579526012734e+01
-2.956206306619409929e+01,9.386575026467896876e+00,4.445351210721550217e+01
-2.938285204461803346e+01,1.093490617410543919e+01,4.427855311596386656e+01
-2.917322323297700493e+01,1.247573935508938092e+01,4.408040689437630277e+01
-2.893332030040651759e+01,1.400800146426754722e+01,4.385931210190931040e+01
-2.866330766441114974e+01,1.553062884327004944e+01,4.361553768618799154e+01
-2.836337037818108087e+01,1.704256843380068531e+01,4.334938254608742625e+01
-2.803371400376586919e+01,1.854277891827548430e+01,4.306117515672644203e+01
-2.767456447119256779e+01,2.003023184645306642e+01,4.275127315683459983e+01
-2.728616792362456422e+01,2.150391274672083597e+01,4.242006289899981653e+01
-2.686879054866744454e+01,2.296282222071782186e+01,4.206795896334992335e+01
-2.642271839593730576e+01,2.440597701999595515e+01,4.169540363526601823e+01
-2.594825718101670731e+01,2.583241110344346581e+01,4.130286634777079513e+01
-2.544573207593255049e+01,2.724117667421682754e+01,4.089084308927743905e+01
-2.491548748629942622e+01,2.863134519495323360e+01,4.045985577742847994e+01
-2.435788681528129018e+01,3.000200838006103510e+01,4.001045159979514665e+01
-2.377331221453309240e+01,3.135227916391449909e+01,3.954320232224919351e+01
-2.316216432229324340e+01,3.268129264380692689e+01,3.905870356585840852e+01
-2.252486198880613699e+01,3.398820699654849165e+01,3.855757405319691600e+01
-2.186184198926319411e+01,3.527220436762542022e+01,3.804045482499784470e+01
-2.117355872445902776e+01,3.653249173187167287e+01,3.750800842811429447e+01
-2.046048390936782368e+01,3.776830172463785829e+01,3.696091807578788746e+01
-1.972310624985353655e+01,3.897889344247864329e+01,3.639988678126071164e+01
-1.896193110773534940e+01,4.016355321241602638e+01,3.582563646579769312e+01
-1.817748015443790877e+01,4.132159532887467890e+01,3.523890704221899028e+01
-1.737029101346387350e+01,4.245236275742400522e+01,3.464045547507208767e+01
-1.654091689193356629e+01,4.355522780450232290e+01,3.403105481860256276e+01
-1.568992620144455330e+01,4.462959275233939849e+01,3.341149323370930802e+01
-1.481790216851075748e+01,4.567489045833572447e+01,3.278257298509699780e+01
-1.392544243484808142e+01,4.669058491820038626e+01,3.214510941986262083e+01
-1.301315864778073284e+01,4.767617179219244150e+01,3.149992992877599818e+01
-1.208167604104864878e+01,4.863117889385620884e+01,3.084787289153618417e+01
-1.113163300630360375e+01,4.955516664068559862e+01,3.018978660730534358e+01
-1.016368065558748590e+01,5.044772846619918027e+01,2.952652821183993481e+01
-9.178482375092530177e+00,5.130849119295414340e+01,2.885896258255638358e+01
-8.176713370509697043e+00,5.213711536607434738e+01,2.818796123288297650e+01
-7.159060204276337380e+00,5.293329554691606376e+01,2.751440119726374789e+01
-6.126220325040731218e+00,5.369676056654231644e+01,2.683916390819133824e+01
-5.078901589665491656e+00,5.442727373872644137e+01,2.616313406665687680e+01
-4.017821778097903973e+00,5.512463303225336375e+01,2.548719850741221649e+01
-2.943708101439430624e+00,5.578867120233688581e+01,2.481224506044785372e+01
-1.857296703551509776e+00,5.641925588102079558e+01,2.413916141009381988e+01
-7.593321565393994499e-01,5.701628962648072729e+01,2.346883395315487775e+01
3.494330495404298076e-01,5.757970993119385383e+01,2.280214665749249292e+01
1.468239022399332461e+00,5.810948918899273252e+01,2.213997992246631696e+01
2.596318988308707443e+00,5.860563462107000987e+01,2.148320944264555976e+01
3.732899817608413162e+00,5.906818816104924252e+01,2.083270507619754142e+01
4.877202554571196558e+00,5.949722629928767503e+01,2.018932971935498344e+01
6.028442951260040594e+00,5.989285988662509652e+01,1.955393818835684172e+01
7.185832005012543711e+00,6.025523389784251549e+01,1.892737611024870148e+01
8.348576499183915089e+00,6.058452715514283682e+01,1.831047882391793991e+01
9.515879546778069908e+00,6.088095201201349482e+01,1.770407029272768895e+01
1.068694113659406497e+01,6.114475399787985310e+01,1.710896203009849970e+01
1.186095868151391741e+01,6.137621142400438146e+01,1.652595203937260848e+01
1.303712756855569310e+01,6.157563495113409857e+01,1.595582376927732327e+01
1.421464171031501778e+01,6.174336711944454237e+01,1.539934508628637033e+01
1.539269409741719663e+01,6.187978184137400461e+01,1.485726726515723506e+01
1.657047735160106683e+01,6.198528385798683615e+01,1.433032399890076469e+01
1.774718427905568774e+01,6.206030815954785851e+01,1.381923042941615698e+01
1.892200842363073932e+01,6.210531937103390732e+01,1.332468219999907610e+01
2.009414461954121833e+01,6.212081110334990086e+01,1.284735453090513246e+01
2.126278954318794590e+01,6.210730527105859977e+01,1.238790131912188563e+01
2.242714226371530373e+01,6.206535137747354014e+01,1.194695426347463219e+01
2.358640479192929362e+01,6.199552576800338954e+01,1.152512201615964571e+01
2.473978262719953136e+01,6.189843085267462897e+01,1.112298936176716957e+01
2.588648530197019326e+01,6.177469429879630525e+01,1.074111642482276707e+01
2.702572692350707939e+01,6.162496819476624665e+01,1.038003790684144967e+01
2.815672671250912984e+01,6.144992818605308571e+01,1.004026235385323851e+01
2.927870953821560107e+01,6.125027258442143108e+01,9.722271455321536138e+00
3.039090644964210242e+01,6.102672145149999494e+01,9.426519375338319406e+00
3.149255520258095942e+01,6.078001565782275861e+01,9.153432116940040331e+00
3.258290078200548123e+01,6.051091591850286733e+01,8.903406920349194564e+00
3.366119591951952827e+01,6.022020180672659961e+01,8.676811695904127930e+00
3.472670160549784413e+01,5.990867074628179978e+01,8.473984492398390245e+00
3.577868759556648115e+01,5.957713698435902216e+01,8.295233001507751780e+00
3.681643291107569382e+01,5.922643054588851186e+01,8.140834098938803720e+00
3.783922633322278273e+01,5.885739617069675234e+01,8.011033422888930389e+00
3.884636689048586078e+01,5.847089223478768361e+01,7.906044990362074643e+00
3.983716433903477849e+01,5.806778965707160722e+01,7.826050851838217248e+00
4.081093963578975092e+01,5.764897079288282100e+01,7.771200784748622858e+00
4.176702540380352247e+01,5.721532831564159238e+01,7.741612026160746396e+00
4.270476638964827742e+01,5.676776408803083740e+01,7.737369045030298764e+00
4.362351991249347094e+01,5.630718802406934032e+01,7.758523354328428212e+00
4.452265630456734868e+01,5.583451694347417771e+01,7.805093363304653309e+00
4.540155934269962046e+01,5.535067341971401333e+01,7.877064270096419740e+00
4.625962667065017087e+01,5.485658462316149553e+01,7.974387994847729644e+00
4.709627021193381324e+01,5.435318116075881534e+01,8.096983153449608395e+00
4.791091657285866034e+01,5.384139591361389421e+01,8.244735071965697770e+00
4.870300743550140510e+01,5.332216287394685850e+01,8.417495841756828412e+00
4.947199994035060655e+01,5.279641598280616677e+01,8.615084415269027573e+00
5.021736705835547809e+01,5.226508796997283923e+01,8.837286742399248496e+00
5.093859795212529207e+01,5.172910919746742309e+01,9.083855947304575906e+00
5.163519832603171267e+01,5.118940650806977288e+01,9.354512545470257123e+00
5.230669076497443370e+01,5.064690208025467655e+01,9.648944700803927077e+00
5.295261506157761033e+01,5.010251229093814374e+01,9.966808522473915133e+00
5.357252853159298667e+01,4.955714658741910483e+01,1.030772840116090805e+01
5.416600631729359350e+01,4.901170636988907603e+01,1.067129738434508646e+01
5.473264167864999763e+01,4.846708388586975502e+01,1.105707759020179992e+01
5.527204627208956111e+01,4.792416113792208421e+01,1.146460065963321817e+01
5.578385041664781596e+01,4.738380880595475020e+01,1.189336824591570441e+01
5.626770334732928092e+01,4.684688518544122360e+01,1.234285254139726717e+01
5.672327345550424127e+01,4.631423514283424225e+01,1.281249684063404715e+01
5.715024851617680213e+01,4.578668908944553806e+01,1.330171613931038266e+01
5.754833590196825099e+01,4.526506197503521634e+01,1.380989776824305793e+01
5.791726278366929392e+01,4.475015230233086072e+01,1.433640206172762888e+01
5.825677631722351180e+01,4.424274116366996168e+01,1.488056305944272850e+01
5.856664381701408217e+01,4.374359130093225190e+01,1.544168924108708474e+01
5.884665291533487874e+01,4.325344618989903012e+01,1.601906429288391820e+01
5.909661170793670237e+01,4.277302915014677609e+01,1.661194790504868379e+01
5.931634888554879836e+01,4.230304248155009361e+01,1.721957659927775097e+01
5.950571385128573354e+01,4.184416662843668178e+01,1.784116458527907412e+01
5.966457682385903638e+01,4.139705937240199063e+01,1.847590464533049825e+01
5.979282892652263115e+01,4.096235505475666372e+01,1.912296904581667079e+01
5.989038226169171253e+01,4.054066382954228231e+01,1.978151047466234758e+01
5.995716997118326219e+01,4.013257094801392810e+01,2.045066300354864097e+01
5.999314628203730848e+01,3.973863607544856080e+01,2.112954307376764973e+01
5.999828653788743082e+01,3.935939264109878621e+01,2.181725050454238612e+01
5.997258721585905050e+01,3.899534722207013004e+01,2.251286952261082419e+01
5.991606592898379091e+01,3.864697896185879955e+01,2.321546981184724601e+01
5.982876141412833704e+01,3.831473902424325217e+01,2.392410758166871076e+01
5.971073350544624248e+01,3.799905008318005883e+01,2.463782665295198981e+01
5.956206309337047600e+01,3.770030584930984219e+01,2.535565956016401756e+01
5.938285206917523595e+01,3.741887063363373045e+01,2.607662866838940374e+01
5.917322325514471260e+01,3.715507894887550577e+01,2.679974730391967697e+01
5.893332032039685231e+01,3.690923514899778013e+01,2.752402089705235610e+01
5.866330768241968485e+01,3.668161310729348656e+01,2.824844813573249880e+01
5.836337039438789276e+01,3.647245593342697845e+01,2.897202212865606796e+01
5.803371401833645393e+01,3.628197572975054186e+01,2.969373157644238148e+01
5.767456448427883231e+01,3.611035338717410781e+01,3.041256194947278146e+01
5.728616793536573226e+01,3.595773842081704430e+01,3.112749667098423600e+01
5.686879055919096970e+01,3.582424884562232847e+01,3.183751830399975802e+01
5.642271840535967442e+01,3.570997109206395947e+01,3.254160974067239920e+01
5.594825718944431259e+01,3.561495996202905445e+01,3.323875539261636902e+01
5.544573208346237436e+01,3.553923862490705687e+01,3.392794238079714120e+01
5.491548749301983889e+01,3.548279865386880516e+01,3.460816172355271192e+01
5.435788682127265758e+01,3.544560010226877012e+01,3.527840952131957408e+01
5.377331221986850807e+01,3.542757162005462845e+01,3.593768813664132722e+01
5.316216432703900097e+01,3.542861061001899969e+01,3.658500736804239040e+01
5.252486199302239811e+01,3.544858342367925275e+01,3.721938561635684550e+01
5.186184199300443964e+01,3.548732559652282248e+01,3.783985104211095063e+01
5.117355872777458359e+01,3.554464212230670483e+01,3.844544271256840062e+01
5.046048391230227281e+01,3.562030776605213589e+01,3.903521173705954794e+01
4.972310625244718096e+01,3.571406741532791784e+01,3.960822238922963834e+01
4.896193111002450848e+01,3.582563646936849011e+01,4.016355321485637120e+01
4.817748015645534565e+01,3.595470126552695689e+01,4.070029812390470880e+01
4.737029101523906860e+01,3.610091954251694091e+01,4.121756746550489936e+01
4.654091689349303351e+01,3.626392093985193554e+01,4.171448908456065396e+01
4.568992620281217398e+01,3.644330753284699398e+01,4.219020935871586886e+01
4.481790216970790652e+01,3.663865440250311423e+01,4.264389421443195971e+01
4.392544243589399144e+01,3.684951023955240146e+01,4.307473012095261566e+01
4.301315864869258121e+01,3.707539798189996816e+01,4.348192506095955423e+01
4.208167604184186672e+01,3.731581548465759113e+01,4.386470947675036314e+01
4.113163300699196867e+01,3.757023622192387080e+01,4.422233719079898151e+01
4.016368065618328131e+01,3.783811001942725483e+01,4.455408629959031686e+01
3.917848237560673397e+01,3.811886381710959881e+01,4.485926003965205666e+01
3.817671337095209338e+01,3.841190246069191971e+01,4.513718762474039181e+01
3.715906020465565973e+01,3.871660952122802968e+01,4.538722505317102929e+01
3.612622032536471295e+01,3.903234814161738342e+01,4.560875588432248406e+01
3.507890158994101171e+01,3.935846190901551012e+01,4.580119198337565933e+01
3.401782177833108278e+01,3.969427575204852587e+01,4.596397423339246302e+01
3.294370810163567853e+01,4.003909686170783289e+01,4.609657321387425100e+01
3.185729670371563316e+01,4.039221563477204313e+01,4.619848984498271705e+01
3.075933215667561171e+01,4.075290663857533247e+01,4.626925599664564004e+01
2.965056695057161917e+01,4.112042959591536828e+01,4.630843506181333424e+01
2.853176097769184949e+01,4.149403038886951123e+01,4.631562249317379099e+01
2.740368101176451177e+01,4.187294208026391829e+01,4.629044630267946303e+01
2.626710018244940770e+01,4.225638595151975352e+01,4.623256752328220642e+01
2.512279744547345928e+01,4.264357255557906257e+01,4.614168063231957717e+01
2.397155704877339488e+01,4.303370278359605550e+01,4.601751393604088491e+01
2.281416799501138470e+01,4.342596894406097618e+01,4.585982991480874915e+01
2.165142350083198508e+01,4.381955585300974576e+01,4.566842552855895576e+01
2.048412045323113517e+01,4.421364193395811526e+01,4.544313248214947265e+01
1.931305886340957301e+01,4.460740032618758732e+01,4.518381745027747343e+01
1.813904131848512336e+01,4.499999999999977263e+01,4.489038226169230938e+01
1.696287243143959955e+01,4.539060687754745516e+01,4.456276404248095702e+01
1.578535828967723376e+01,4.577838495784365591e+01,4.420093531825209965e+01
1.460730590257264261e+01,4.616249744454499648e+01,4.380490407509435613e+01
1.342952264838691789e+01,4.654210787510189817e+01,4.337471377923369431e+01
1.225281572093089899e+01,4.691638124986668146e+01,4.291044335536501819e+01
1.107799157635483134e+01,4.728448515975078692e+01,4.241220712368269119e+01
9.905855380443640001e+00,4.764559091102346144e+01,4.188015469568421167e+01
8.737210456796494995e+00,4.799887464584860908e+01,4.131447082887120104e+01
7.572857736268944429e+00,4.834351845716072660e+01,4.071537524052133250e+01
6.413595208054917229e+00,4.867871149648856743e+01,4.008312238075384926e+01
5.260217372784799394e+00,4.900365107334327774e+01,3.941800116516075292e+01
4.113514698014387072e+00,4.931754374479810821e+01,3.872033466732399631e+01
2.974273076477869093e+00,4.961960639389901218e+01,3.799047977158762990e+01
1.843273287476275391e+00,4.990906729555880617e+01,3.722882678650167065e+01
7.212904617702819987e-01,5.018516716860318638e+01,3.643579901940147181e+01
-3.909064496556737822e-01,5.044716021265334405e+01,3.561185231263362994e+01
-1.492555202593946140e+00,5.069431512854902877e+01,3.475747454198526043e+01
-2.582900782017892194e+00,5.092591612103552023e+01,3.387318507791918165e+01
-3.661195919531330389e+00,5.114126388246022969e+01,3.295953421026203500e+01
-4.726701605509056492e+00,5.133967655624724102e+01,3.201710253703667775e+01
-5.778687595577093106e+00,5.152049067894341050e+01,3.104650031817294931e+01
-6.816432911085734681e+00,5.168306209965540177e+01,3.004836679487347340e+01
-7.839226333232254262e+00,5.182676687572532614e+01,2.902336947545213874e+01
-8.846366890494783419e+00,5.195100214352085999e+01,2.797220338850342358e+01
-9.837164339043180661e+00,5.205518696324711669e+01,2.689559030429984077e+01
-1.081093963579762196e+01,5.213876313671863016e+01,2.579427792535308228e+01
-1.176702540381090145e+01,5.220119599706350044e+01,2.466903904711127993e+01
-1.270476638965516258e+01,5.224197516936528274e+01,2.352067068980074893e+01
-1.362351991249991556e+01,5.226061530128513510e+01,2.234999320245535870e+01
-1.452265630457335099e+01,5.225665676274197580e+01,2.115784934020956953e+01
-1.540155934270523375e+01,5.222966631376751678e+01,1.994510331596375963e+01
-1.625962667065539335e+01,5.217923773969137358e+01,1.871263982756081035e+01
-1.709627021193867336e+01,5.210499245285164704e+01,1.746136306164234142e+01
-1.791091657286316874e+01,5.200658006006754874e+01,1.619219567538085869e+01
-1.870300743550557954e+01,5.188367889515220810e+01,1.490607775731062645e+01
-1.947199994035448256e+01,5.173599651578719971e+01,1.360396576850485140e+01
-2.021736705835908765e+01,5.156327016412348740e+01,1.228683146537031412e+01
-2.093859795212863162e+01,5.136526719051810375e+01,1.095566080535255793e+01
-2.163519832603480353e+01,5.114178543986135850e+01,9.611452836864955884e+00
-2.230669076497730074e+01,5.089265359999485128e+01,8.255218574773586226e+00
-2.295261506158027132e+01,5.061773151176713270e+01,6.887979862787463325e+00
-2.357252853159545225e+01,5.031691044032113780e+01,5.510768224118480774e+00
-2.416600631729587079e+01,4.999011330725478075e+01,4.124623701789741581e+00
-2.473264167865208307e+01,4.963729488334414697e+01,2.730593689982965255e+00
-2.527204627209147958e+01,4.925844194156722722e+01,1.329731757825932448e+00
-2.578385041664958521e+01,4.885357337021484625e+01,-7.690353296990180831e-02
-2.626770334733089740e+01,4.842274024592405368e+01,-1.488249815204978566e+00
-2.672327345550573696e+01,4.796602586651894740e+01,-2.903242106597873295e+00
-2.715024851617817703e+01,4.748354574359287739e+01,-4.320814002076511784e+00
-2.754833590196951931e+01,4.697544755481545309e+01,-5.739898866526504051e+00
-2.791726278367045921e+01,4.644191105599742997e+01,-7.159431026568809919e+00
-2.825677631722457406e+01,4.588314795299552173e+01,-8.578346959940382987e+00
-2.856664381701505917e+01,4.529940173358909306e+01,-9.995586481054850481e+00
-2.884665291533577403e+01,4.469094745950917513e+01,-1.141009392132529143e+01
-2.909661170793750529e+01,4.405809151885002706e+01,-1.282081930283797178e+01
-2.931634888554951246e+01,4.340117133914114333e+01,-1.422671950397440277e+01
-2.950571385128638724e+01,4.272055506140701908e+01,-1.562675941558916293e+01
-2.966457682385959771e+01,4.201664117558894418e+01,-1.701991308636286604e+01
-2.979282892652312498e+01,4.128985811775142878e+01,-1.840516485596332075e+01
-2.989038226169215307e+01,4.054066382954230363e+01,-1.978151047466277745e+01
-2.995716997118363523e+01,3.976954528042222137e+01,-2.114795820807646365e+01
-2.999314628203761401e+01,3.897701795322509355e+01,-2.250352992570567778e+01
-2.999828653788769373e+01,3.816362529365596856e+01,-2.384726217198894815e+01
-2.997258721585927077e+01,3.732993812437750591e+01,-2.517820721858639033e+01
-2.991606592898395078e+01,3.647655402437955274e+01,-2.649543409664550353e+01
-2.982876141412846138e+01,3.560409667436925218e+01,-2.779802960782136267e+01
-2.971073350544632774e+01,3.471321516896109216e+01,-2.908509931285033190e+01
-2.956206309337052929e+01,3.380458329648678983e+01,-3.035576849650406217e+01
-2.938285206917524661e+01,3.287889878728555004e+01,-3.160918310777956464e+01
-2.917322325514468773e+01,3.193688253137336730e+01,-3.284451067421161241e+01
-2.893332032039678836e+01,3.097927776642860209e+01,-3.406094118922539593e+01
-2.866330768241959959e+01,3.000684923706689844e+01,-3.525768797148067790e+01
-2.836337039438777197e+01,2.902038232641490012e+01,-3.643398849519275018e+01
-2.803371401833630117e+01,2.802068216102575349e+01,-3.758910519045135601e+01
-2.767456448427864757e+01,2.700857269021263818e+01,-3.872232621259524876e+01
-2.728616793536553331e+01,2.598489574090854148e+01,-3.983296617973829967e+01
-2.686879055919072812e+01,2.495051004919023541e+01,-4.092036687758158564e+01
-2.642271840535941507e+01,2.390629026963397763e+01,-4.198389793068648146e+01
-2.594825718944401771e+01,2.285312596369753990e+01,-4.302295743942433859e+01
-2.544573208346205462e+01,2.179192056834953206e+01,-4.403697258186068098e+01
-2.491548749301949428e+01,2.072359034619158535e+01,-4.502540017987443122e+01
-2.435788682127230231e+01,1.964906331834163211e+01,-4.598772722885659903e+01
-2.377331221986812437e+01,1.856927818136896491e+01,-4.692347139037730130e+01
-2.316216432703860661e+01,1.748518320959054506e+01,-4.783218144725528731e+01
-2.252486199302197889e+01,1.639773514405753829e+01,-4.871343772050986587e+01
-2.186184199300401687e+01,1.530789806957696619e+01,-4.956685244772201315e+01
-2.117355872777413950e+01,1.421664228112918771e+01,-5.039207012237820038e+01
-2.046048391230182162e+01,1.312494314105469861e+01,-5.118876779381841402e+01
-1.972310625244670135e+01,1.203377992839619637e+01,-5.195665532745753268e+01
-1.896193111002402532e+01,1.094413468179153170e+01,-5.269547562499827364e+01
-1.817748015645483761e+01,9.856991037321787275e+00,-5.340500480440199027e+01
-1.737029101523853214e+01,8.773333062725386711e+00,-5.408505233943343882e+01
-1.654091689349249705e+01,7.694144089394043817e+00,-5.473546115864412798e+01
-1.568992620281161621e+01,6.620405543569820139e+00,-5.535610770370912803e+01
-1.481790216970734342e+01,5.553095778163938512e+00,-5.594690194708100961e+01
-1.392544243589340169e+01,4.493188906617742617e+00,-5.650778736897474630e+01
-1.301315864869198968e+01,3.441653640224612953e+00,-5.703874089374642864e+01
-1.208167604184126098e+01,2.399452130327492494e+00,-5.753977278577857390e+01
-1.113163300699135405e+01,1.367538816801759705e+00,-5.801092650503400705e+01
-1.016368065618265071e+01,3.468592842259317632e-01,-5.845227852248876843e+01
-9.178482375606094479e+00,-6.616508728663870187e-01,-5.886393809570456170e+01
-8.176713370951437909e+00,-1.657067174269896359e+00,-5.924604700484848507e+01
-7.159060204654998927e+00,-2.638477366555448178e+00,-5.959877924951690886e+01
-6.126220325364041486e+00,-3.604982522325268945e+00,-5.992234070676730795e+01
-5.078901589940335803e+00,-4.555698124933956983e+00,-6.021696875080944977e+01
-4.017821778330392668e+00,-5.489755137350712744e+00,-6.048293183485396440e+01
-2.943708101634979535e+00,-6.406301053857127670e+00,-6.072052903566194004e+01
-1.857296703714922392e+00,-7.304500933295442699e+00,-6.093008956138505994e+01
-7.593321566749003937e-01,-8.183538412603256873e+00,-6.111197222332983614e+01
3.494330494291051359e-01,-9.042616699395447100e+00,-6.126656487232371973e+01
1.468239022308877706e+00,-9.880959542377826921e+00,-6.139428380040379807e+01
2.596318988236218317e+00,-1.069781217840418108e+01,-6.149557310859046311e+01
3.732899817551333932e+00,-1.149244225501601946e+01,-6.157090404155022156e+01
4.877202554527285017e+00,-1.226414072733384586e+01,-6.162077428999151607e+01
6.028442951227347635e+00,-1.301222272819930481e+01,-6.164570726167678316e+01
7.185832004989370247e+00,-1.373602841049954826e+01,-6.164625132197170387e+01
8.348576499168771647e+00,-1.443492376063889715e+01,-6.162297900489013358e+01
9.515879546769625108e+00,-1.510830138215700380e+01,-6.157648619562804271e+01
1.068694113659118905e+01,-1.575558124852891595e+01,-6.150739128561519209e+01
1.186095868151563515e+01,-1.637621142421935261e+01,-6.141633430114591619e+01
1.303712756856116961e+01,-1.696966875310149803e+01,-6.130397600668251101e+01
1.421464171032353541e+01,-1.753545951339019737e+01,-6.117099698395544749e+01
1.539269409742812478e+01,-1.807312003827952651e+01,-6.101809668801364239e+01
1.657047735161384239e+01,-1.858221730151566575e+01,-6.084599248140599315e+01
1.774718427906986662e+01,-1.906234946717913914e+01,-6.065541864770173675e+01
1.892200842364592717e+01,-1.951314640299230518e+01,-6.044712538558169967e+01
2.009414461955711673e+01,-1.993427015651318257e+01,-6.022187778475677788e+01
2.126278954320426351e+01,-2.032541539362048866e+01,-5.998045478499061289e+01
2.242714226373181319e+01,-2.068630979874077980e+01,-5.972364811952469665e+01
2.358640479194583861e+01,-2.101671443631432012e+01,-5.945226124422234903e+01
2.473978262721594135e+01,-2.131642407304351039e+01,-5.916710825376502214e+01
2.588648530198636166e+01,-2.158526746051445855e+01,-5.886901278625018108e+01
2.702572692352286410e+01,-2.182310757783062982e+01,-5.855880691755326950e+01
2.815672671252445269e+01,-2.202984183394534412e+01,-5.823733004682900116e+01
2.927870953823044786e+01,-2.220540222942886999e+01,-5.790542777453698164e+01
3.039090644965638077e+01,-2.234975547745446178e+01,-5.756395077438584451e+01
3.149255520259465513e+01,-2.246290308383742840e+01,-5.721375366059712064e+01
3.258290078201859785e+01,-2.254488138601023550e+01,-5.685569385189502611e+01
3.366119591953202672e+01,-2.259576155086676152e+01,-5.649063043363216252e+01
3.472670160550973861e+01,-2.261564953145792245e+01,-5.611942301946308476e+01
3.577868759557777167e+01,-2.260468598257125805e+01,-5.574293061397762727e+01
3.681643291108640170e+01,-2.256304613527632341e+01,-5.536201047770441619e+01
3.783922633323290796e+01,-2.249093963056725443e+01,-5.497751699589147023e+01
3.884636689049543179e+01,-2.238861031228376319e+01,-5.459030055246608981e+01
3.983716433904380949e+01,-2.225633597954055887e+01,-5.420120641056927013e+01
4.081093963579824901e+01,-2.209442809894442661e+01,-5.381107360105121273e+01
4.176702540381151607e+01,-2.190323147692679484e+01,-5.342073382030490336e+01
4.270476638965576655e+01,-2.168312389256766437e+01,-5.303101033880231086e+01
4.362351991250049110e+01,-2.143451569133475587e+01,-5.264271692168448880e+01
4.452265630457392831e+01,-2.115784934020886254e+01,-5.225665676274191185e+01
4.540155934270578797e+01,-2.085359894471332254e+01,-5.187362143310399176e+01
4.625962667065593337e+01,-2.052226972841113550e+01,-5.149438984593906099e+01
4.709627021193919205e+01,-2.016439747547924100e+01,-5.111972723844549193e+01
4.791091657286366967e+01,-1.978054793701367942e+01,-5.075038417239327515e+01
4.870300743550608047e+01,-1.937131620176342395e+01,-5.038709555445238664e+01
4.947199994035496218e+01,-1.893732603203375220e+01,-5.003057967751942670e+01
5.021736705835955661e+01,-1.847922916554205486e+01,-4.968153728422809223e+01
5.093859795212907216e+01,-1.799770458405019014e+01,-4.934065065380145398e+01
5.163519832603522985e+01,-1.749345774963783384e+01,-4.900858271337477134e+01
5.230669076497772352e+01,-1.696721980952014874e+01,-4.868597617488786966e+01
5.295261506158066567e+01,-1.641974677035152652e+01,-4.837345269861359753e+01
5.357252853159582884e+01,-1.585181864299380727e+01,-4.807161208435655197e+01
5.416600631729622251e+01,-1.526423855876311997e+01,-4.778103149132169847e+01
5.473264167865242058e+01,-1.465783185820425771e+01,-4.750226468761694321e+01
5.527204627209181353e+01,-1.403344515347450994e+01,-4.723584133031733501e+01
5.578385041664989075e+01,-1.339194536545078584e+01,-4.698226627698053903e+01
5.626770334733119228e+01,-1.273421873670475613e+01,-4.674201892946456383e+01
5.672327345550600342e+01,-1.206116982151958794e+01,-4.651555261085832882e+01
5.715024851617842927e+01,-1.137372045414983823e+01,-4.630329397629554222e+01
5.754833590196973603e+01,-1.067280869655236231e+01,-4.610564245837967690e+01
5.791726278367067238e+01,-9.959387766840915646e+00,-4.592296974790557584e+01
5.825677631722476946e+01,-9.234424949740438038e+00,-4.575561931051955611e+01
5.856664381701522615e+01,-8.498900490338954228e+00,-4.560390593991528618e+01
5.884665291533592324e+01,-7.753806472454876086e+00,-4.546811534811813971e+01
5.909661170793762608e+01,-7.000145682956532944e+00,-4.534850379336410242e+01
5.931634888554962259e+01,-6.238930463387446501e+00,-4.524529774603386301e+01
5.950571385128647250e+01,-5.471181550266392968e+00,-4.515869359305501263e+01
5.966457682385966876e+01,-4.697926905444854917e+00,-4.508885738113831110e+01
5.979282892652317827e+01,-3.920200537916626704e+00,-4.503592459916573887e+01
5.989038226169218149e+01,-3.139041318484585563e+00,-4.499999999999993605e+01
5.995716997118363167e+01,-2.355491788698284683e+00,-4.498115746193593623e+01
5.999314628203759980e+01,-1.570596965482988105e+00,-4.497943988996723874e+01
5.999828653788765820e+01,-7.854031428858696540e-01,-4.499485915698923577e+01
5.997258721585922103e+01,-9.566923687050951901e-04,-4.502739608501330792e+01
5.991606592898386907e+01,7.816971369219662957e-01,-4.507700046641630820e+01
5.982876141412836546e+01,1.561515416476264129e+00,-4.514359112520024553e+01
5.971073350544620695e+01,2.337458733904582697e+00,-4.522705601818736199e+01
5.956206309337039784e+01,3.108492384157730548e+00,-4.532725237602766555e+01
5.938285206917509385e+01,3.873587555062751875e+00,-4.544400688384529019e+01
5.917322325514450654e+01,4.631722505760982322e+00,-4.557711590130274004e+01
5.893332032039659651e+01,5.381883736642951277e+00,-4.572634572181207346e+01
5.866330768241937932e+01,6.123067149385483354e+00,-4.589143287057495968e+01
5.836337039438753749e+01,6.854279195708260275e+00,-4.607208444108461265e+01
5.803371401833604182e+01,7.574538013480617060e+00,-4.626797846967598815e+01
5.767456448427836335e+01,8.282874548824967320e+00,-4.647876434766300946e+01
5.728616793536522778e+01,8.978333662879936838e+00,-4.670406327055583517e+01
5.686879055919041548e+01,9.659975221905201082e+00,-4.694346872380459956e+01
5.642271840535907046e+01,1.032687516942993433e+01,-4.719654700447198792e+01
5.594825718944365178e+01,1.097812657916867529e+01,-4.746283777819149208e+01
5.544573208346168514e+01,1.161284068745186282e+01,-4.774185467072572209e+01
5.491548749301909993e+01,1.223014790394282159e+01,-4.803308589339552981e+01
5.435788682127189020e+01,1.282919879943946029e+01,-4.833599490160939638e+01
5.377331221986768384e+01,1.340916506958694576e+01,-4.865002108568118189e+01
5.316216432703815542e+01,1.396924047335624941e+01,-4.897458049308516337e+01
5.252486199302151704e+01,1.450864174517466232e+01,-4.930906658125724817e+01
5.186184199300353015e+01,1.502660947962581162e+01,-4.965285100001464968e+01
5.117355872777363857e+01,1.552240898767019850e+01,-5.000528440262891650e+01
5.046048391230129937e+01,1.599533112337193330e+01,-5.036569728455175721e+01
4.972310625244617199e+01,1.644469308015237274e+01,-5.073340084875956535e+01
4.896193111002347820e+01,1.686983915562936431e+01,-5.110768789664828660e+01
4.817748015645427984e+01,1.727014148413789485e+01,-5.148783374337997998e+01
4.737029101523795305e+01,1.764500073606745545e+01,-5.187309715655099751e+01
4.654091689349190375e+01,1.799384678319187003e+01,-5.226272131702337020e+01
4.568992620281100869e+01,1.831613932920799215e+01,-5.265593480073305699e+01
4.481790216970672702e+01,1.861136850474226634e+01,-5.305195258026307670e+01
4.392544243589276931e+01,1.887905542612694632e+01,-5.344997704494433322e+01
4.301315864869134487e+01,1.911875271729159209e+01,-5.384919903822434151e+01
4.208167604184059485e+01,1.933004499416033184e+01,-5.424879891102225571e+01
4.113163300699067548e+01,1.951254931099057544e+01,-5.464794758976874078e+01
4.016368065618195971e+01,1.966591556813495600e+01,-5.504580765781056328e+01
3.917848237560538394e+01,1.978982688075509344e+01,-5.544153444884329929e+01
3.817671337095072914e+01,1.988399990806281892e+01,-5.583427715102029509e+01
3.715906020465428128e+01,1.994818514271257115e+01,-5.622317992037238099e+01
3.612622032536331318e+01,1.998216716001643789e+01,-5.660738300216114993e+01
3.507890158993959773e+01,1.998576482670254606e+01,-5.698602385877834564e+01
3.401782177832964749e+01,1.995883146898570004e+01,-5.735823830279580449e+01
3.294370810163422192e+01,1.990125499976911172e+01,-5.772316163376281395e+01
3.185729670371415878e+01,1.981295800484497960e+01,-5.807992977734384965e+01
3.075933215667413023e+01,1.969389778801143720e+01,-5.842768042538546780e+01
2.965056695057011993e+01,1.954406637507307209e+01,-5.876555417549975857e+01
2.853176097769033603e+01,1.936349047674205792e+01,-5.909269566875226332e+01
2.740368101176299120e+01,1.915223141050616107e+01,-5.940825472404358720e+01
2.626710018244787292e+01,1.891038498158012615e+01,-5.971138746777794637e+01
2.512279744547191029e+01,1.863808132310576227e+01,-6.000125745741699745e+01
2.397155704877184235e+01,1.833548469581586104e+01,-6.027703679752457333e+01
2.281416799500981796e+01,1.800279324742540510e+01,-6.053790724691608460e+01
2.165142350083041478e+01,1.764023873206286552e+01,-6.078306131553777902e+01
2.048412045322956132e+01,1.724808619010200061e+01,-6.101170334971216391e+01
1.931305886340799560e+01,1.682663358880287419e+01,-6.122305060440017854e+01
1.813904131848354240e+01,1.637621142421767928e+01,-6.141633430114639935e+01
1.696287243143801504e+01,1.589718228486411711e+01,-6.159080067038988204e+01
1.578535828967564392e+01,1.538994037771484535e+01,-6.174571197684270629e+01
1.460730590257105099e+01,1.485491101709717654e+01,-6.188034752665797811e+01
1.342952264838533161e+01,1.429255007714178127e+01,-6.199400465513141967e+01
1.225281572092931270e+01,1.370334340846326882e+01,-6.208599969370349214e+01
1.107799157635325216e+01,1.308780621979842529e+01,-6.215566891505429226e+01
9.905855380442066149e+00,1.244648242537014937e+01,-6.220236945510981030e+01
8.737210456794930025e+00,1.177994395878644163e+01,-6.222548021080568503e+01
7.572857736267376794e+00,1.108879005432415532e+01,-6.222440271248407839e+01
6.413595208053358476e+00,1.037364649648617565e+01,-6.219856196982991747e+01
5.260217372783246859e+00,9.635164838759154193e+00,-6.214740729028445543e+01
4.113514698012842530e+00,8.874021592535726199e+00,-6.207041306890766919e+01
2.974273076476336541e+00,8.090917387201089994e+00,-6.196707954869522439e+01
1.843273287474754829e+00,7.286576102418450773e+00,-6.183693355039192596e+01
7.212904617687699860e-01,6.461743973680989406e+00,-6.167952917087985298e+01
-3.909064496571640901e-01,5.617188672230369662e+00,-6.149444844925812959e+01
-1.492555202595430730e+00,4.753698360472292883e+00,-6.128130199976973813e+01
-2.582900782019354136e+00,3.872080724048859945e+00,-6.103972961077163006e+01
-3.661195919532779453e+00,2.973161981755680916e+00,-6.076940080898487651e+01
-4.726701605510481130e+00,2.057785874517894076e+00,-6.047001538830449618e+01
-5.778687595578508862e+00,1.126812634664242641e+00,-6.014130390249042790e+01
-6.816432911087122015e+00,1.811179367619930591e-01,-5.978302812110653974e+01
-7.839226333233626498e+00,-7.784081687028148178e-01,-5.939498144811750535e+01
-8.846366890496131674e+00,-1.750862337494879961e+00,-5.897698930259995365e+01
-9.837164339044493389e+00,-2.735329028325037548e+00,-5.852890946106971626e+01
-1.081093963579892403e+01,-3.730881612730994057e+00,-5.805063236097370094e+01
-1.176702540381218398e+01,-4.736583496786753500e+00,-5.754208136494228398e+01
-1.270476638965641314e+01,-5.751489253270790414e+00,-5.700321298544559312e+01
-1.362351991250113414e+01,-6.774645762910370905e+00,-5.643401706954529828e+01
-1.452265630457455359e+01,-7.805093363309350885e+00,-5.583451694348207184e+01
-1.540155934270640437e+01,-8.841867004157576204e+00,-5.520476951688765865e+01
-1.625962667065653022e+01,-9.883997407313250605e+00,-5.454486534645952389e+01
-1.709627021193978536e+01,-1.093051223034402497e+01,-5.385492865898574166e+01
-1.791091657286424521e+01,-1.198043723210911260e+01,-5.313511733365665890e+01
-1.870300743550663469e+01,-1.303279743896260712e+01,-5.238562284365006860e+01
-1.947199994035550930e+01,-1.408661831015817789e+01,-5.160667015702567539e+01
-2.021736705836007530e+01,-1.514092690103673711e+01,-5.079851759701451641e+01
-2.093859795212958019e+01,-1.619475302258188520e+01,-4.996145666183842593e+01
-2.163519832603572368e+01,-1.724713039593323316e+01,-4.909581180424357427e+01
-2.230669076497819603e+01,-1.829709780045392264e+01,-4.820194017098184247e+01
-2.295261506158111686e+01,-1.934370021395753270e+01,-4.728023130252201867e+01
-2.357252853159626937e+01,-2.038598994370944695e+01,-4.633110679332155257e+01
-2.416600631729664883e+01,-2.142302774682957178e+01,-4.535501991303770097e+01
-2.473264167865282204e+01,-2.245388393873680144e+01,-4.435245518910441831e+01
-2.527204627209218657e+01,-2.347763948829084768e+01,-4.332392795114854067e+01
-2.578385041665025668e+01,-2.449338709830351846e+01,-4.226998383776545865e+01
-2.626770334733152978e+01,-2.550023227011037719e+01,-4.119119826622018365e+01
-2.672327345550632671e+01,-2.649729435091318308e+01,-4.008817586568516589e+01
-2.715024851617873480e+01,-2.748370756262545100e+01,-3.896154987467073028e+01
-2.754833590197003801e+01,-2.845862201097636301e+01,-3.781198150334753905e+01
-2.791726278367093173e+01,-2.942120467365293024e+01,-3.664015926150369040e+01
-2.825677631722501459e+01,-3.037064036628621722e+01,-3.544679825292075748e+01
-2.856664381701546063e+01,-3.130613268511535452e+01,-3.423263943699431877e+01
-2.884665291533612930e+01,-3.222690492519163996e+01,-3.299844885846459164e+01
-2.909661170793782148e+01,-3.313220097301544342e+01,-3.174501684616143748e+01
-2.931634888554978602e+01,-3.402128617253073628e+01,-3.047315718170661114e+01
-2.950571385128661461e+01,-3.489344816343409406e+01,-2.918370623915217976e+01
-2.966457682385978600e+01,-3.574799769079054812e+01,-2.787752209657017133e+01
-2.979282892652327064e+01,-3.658426938498304537e+01,-2.655548362064244472e+01
-2.989038226169226320e+01,-3.740162251105954283e+01,-2.521848952533333588e+01
-2.995716997118370273e+01,-3.819944168657932693e+01,-2.386745740575902630e+01
-2.999314628203764599e+01,-3.897713756709927679e+01,-2.250332274839824720e+01
-2.999828653788767951e+01,-3.973414749848026162e+01,-2.112703791881788717e+01
-2.997258721585921393e+01,-4.046993613523538613e+01,-1.973957112811480386e+01
-2.991606592898385131e+01,-4.118399602418316618e+01,-1.834190537930121678e+01
-2.982876141412832283e+01,-4.187584815271178940e+01,-1.693503739488585680e+01
-2.971073350544614300e+01,-4.254504246100403009e+01,-1.551997652692611318e+01
-2.956206309337030547e+01,-4.319115831761692448e+01,-1.409774365084821746e+01
-2.938285206917498726e+01,-4.381380495785538898e+01,-1.266937004435238734e+01
-2.917322325514438219e+01,-4.441262188442454573e+01,-1.123589625273846870e+01
-2.893332032039644375e+01,-4.498727922989257877e+01,-9.798370942004314799e+00
-2.866330768241921589e+01,-4.553747808054196611e+01,-8.357849741084644180e+00
-2.836337039438734564e+01,-4.606295076123544874e+01,-6.915394074611171504e+00
-2.803371401833583576e+01,-4.656346108097023517e+01,-5.472069987587314444e+00
-2.767456448427814308e+01,-4.703880453884274715e+01,-4.028946963380329649e+00
-2.728616793536498619e+01,-4.748880849019476358e+01,-2.587096736442852762e+00
-2.686879055919014903e+01,-4.791333227276070517e+01,-1.147592101181974744e+00
-2.642271840535879335e+01,-4.831226729268490772e+01,2.884942816004182897e-01
-2.594825718944335691e+01,-4.868553707032732092e+01,1.720091079269344014e+00
-2.544573208346136539e+01,-4.903309724582517504e+01,3.146129481492024649e+00
-2.491548749301876597e+01,-4.935493554442761877e+01,4.565544392518400940e+00
-2.435788682127153493e+01,-4.965107170166997719e+01,5.977275620180551918e+00
-2.377331221986731791e+01,-4.992155734850340565e+01,7.380269060188118679e+00
-2.316216432703776107e+01,-5.016647585654479968e+01,8.773477874302219703e+00
-2.252486199302110847e+01,-5.038594214366101909e+01,1.015586366097736359e+01
-2.186184199300310382e+01,-5.058010244015011381e+01,1.152639761706973864e+01
-2.117355872777319092e+01,-5.074913401583030037e+01,1.288406168922044870e+01
-2.046048391230084462e+01,-5.089324486839604589e+01,1.422784971353470240e+01
-1.972310625244569593e+01,-5.101267337344752661e+01,1.555676854219157867e+01
-1.896193111002298082e+01,-5.110768789664691525e+01,1.686983915563455128e+01
-1.817748015645376825e+01,-5.117858636850186826e+01,1.816609775901001811e+01
-1.737029101523742725e+01,-5.122569582232175378e+01,1.944459686153980726e+01
-1.654091689349136374e+01,-5.124937189593784836e+01,2.070440633753415227e+01
-1.568992620281045269e+01,-5.124999829782294825e+01,2.194461446777298264e+01
-1.481790216970614971e+01,-5.122798623828953879e+01,2.316432896000763009e+01
-1.392544243589218667e+01,-5.118377382648864682e+01,2.436267794735917391e+01
-1.301315864869074623e+01,-5.111782543397310974e+01,2.553881096341667600e+01
-1.208167604183999089e+01,-5.103063102563046982e+01,2.669189989286615727e+01
-1.113163300699005909e+01,-5.092270545883022947e+01,2.782113989651049124e+01
-1.016368065618133087e+01,-5.079458775166955320e+01,2.892575030957132043e+01
-9.178482375604746224e+00,-5.064684032123920332e+01,3.000497551219574888e+01
-8.176713370950075443e+00,-5.048004819286833822e+01,3.105808577112425439e+01
-7.159060204653615145e+00,-5.029481818134223658e+01,3.208437805151067579e+01
-6.126220325362642605e+00,-5.009177804512157905e+01,3.308317679792112642e+01
-5.078901589938909389e+00,-4.987157561462497313e+01,3.405383468357550214e+01
-4.017821778328954707e+00,-4.963487789566790553e+01,3.499573332693359617e+01
-2.943708101633521146e+00,-4.938237014918238543e+01,3.590828397476698797e+01
-1.857296703713450903e+00,-4.911475494836980005e+01,3.679092815089818913e+01
-7.593321566734146932e-01,-4.883275121446791900e+01,3.764313826982970568e+01
3.494330494306043255e-01,-4.853709323233879758e+01,3.846441821452825138e+01
1.468239022310393604e+00,-4.822852964710899215e+01,3.925430387767184470e+01
2.596318988237750425e+00,-4.790782244311714777e+01,4.001236366571220060e+01
3.732899817552869592e+00,-4.757574590644508561e+01,4.073819896514903149e+01
4.877202554528835776e+00,-4.723308557232931548e+01,4.143144457045850260e+01
6.028442951228907276e+00,-4.688063715876781146e+01,4.209176907316443561e+01
7.185832004990933441e+00,-4.651920548765421870e+01,4.271887521158736689e+01
8.348576499170340171e+00,-4.614960339478692219e+01,4.331250018085400910e+01
9.515879546771195407e+00,-4.577265063011356006e+01,4.387241590279750625e+01
1.068694113659277178e+01,-4.538917274958422610e+01,4.439842925542729546e+01
1.186095868151722321e+01,-4.499999999999656808e+01,4.489038226169569867e+01
1.303712756856274524e+01,-4.460596619822425879e+01,4.534815223733791356e+01
1.421464171032511814e+01,-4.420790760622779914e+01,4.577165189761084463e+01
1.539269409742971639e+01,-4.380666180325134462e+01,4.616082942280608137e+01
1.657047735161543400e+01,-4.340306655661286328e+01,4.651566848246182673e+01
1.774718427907145823e+01,-4.299795869249662417e+01,4.683618821824822476e+01
1.892200842364751523e+01,-4.259217296815693743e+01,4.712244318555050882e+01
2.009414461955870124e+01,-4.218654094694059609e+01,4.737452325382410834e+01
2.126278954320583381e+01,-4.178188987753158301e+01,4.759255346584518520e+01
2.242714226373337283e+01,-4.137904157881677492e+01,4.777669385602999341e+01
2.358640479194739115e+01,-4.097881133176448998e+01,4.792713922804561832e+01
2.473978262721749033e+01,-4.058200677969875159e+01,4.804411889198337349e+01
2.588648530198790354e+01,-4.018942683834241336e+01,4.812789636141516780e+01
2.702572692352439887e+01,-3.980186061698979216e+01,4.817876901070151519e+01
2.815672671252597681e+01,-3.942008635215609758e+01,4.819706769296715265e+01
2.927870953823195777e+01,-3.904487035503567682e+01,4.818315631920822995e+01
3.039090644965787646e+01,-3.867696597408390602e+01,4.813743139904155299e+01
3.149255520259613661e+01,-3.831711257401942561e+01,4.806032154365218645e+01
3.258290078202006157e+01,-3.796603453252283344e+01,4.795228693154184896e+01
3.366119591953346912e+01,-3.762444025588656871e+01,4.781381873772483715e+01
3.472670160551116680e+01,-3.729302121484744958e+01,4.764543852706212590e+01
3.577868759557917855e+01,-3.697245100180850841e+01,4.744769761246786288e+01
3.681643291108778726e+01,-3.666338441063036413e+01,4.722117637876408480e+01
3.783922633323427931e+01,-3.636645654014538565e+01,4.696648357300139764e+01
3.884636689049677472e+01,-3.608228192251772981e+01,4.668425556210321048e+01
3.983716433904513110e+01,-3.581145367754302811e+01,4.637515555873047646e+01
4.081093963579954931e+01,-3.555454269394869016e+01,4.603987281630224260e+01
4.176702540381279505e+01,-3.531209683872360472e+01,4.567912179414400953e+01
4.270476638965701710e+01,-3.508464019547066215e+01,4.529364129377204051e+01
4.362351991250172745e+01,-3.487267233274087630e+01,4.488419356735622756e+01
4.452265630457512202e+01,-3.467666760327053055e+01,4.445156339943753210e+01
4.540155934270695326e+01,-3.449707447500497892e+01,4.399655716300790687e+01
4.625962667065707734e+01,-3.433431489475379550e+01,4.352000185109173458e+01
4.709627021194032181e+01,-3.418878368528226730e+01,4.302274408499632585e+01
4.791091657286475680e+01,-3.406084797660224694e+01,4.250564910042805877e+01
4.870300743550713207e+01,-3.395084667218490182e+01,4.196959971269608047e+01
4.947199994035598536e+01,-3.385908995077335248e+01,4.141549526225094979e+01
5.021736705836054426e+01,-3.378585880443127820e+01,4.084425054182940329e+01
5.093859795213002428e+01,-3.373140461341731111e+01,4.025679470649743763e+01
5.163519832603614645e+01,-3.369594875843166903e+01,3.965407016790508266e+01
5.230669076497861170e+01,-3.367968227073397003e+01,3.903703147408450036e+01
5.295261506158152542e+01,-3.368276552058581075e+01,3.840664417614024728e+01
5.357252853159664596e+01,-3.370532794442424063e+01,3.776388368319619815e+01
5.416600631729701831e+01,-3.374746781112473570e+01,3.710973410697718577e+01
5.473264167865318086e+01,-3.380925202766412241e+01,3.644518709741573304e+01
5.527204627209250987e+01,-3.389071598444607503e+01,3.577124067068469060e+01
5.578385041665056576e+01,-3.399186344050234965e+01,3.508889803106541905e+01
5.626770334733182466e+01,-3.411266644873477105e+01,3.439916638806786864e+01
5.672327345550660738e+01,-3.425306532131289572e+01,3.370305577022484300e+01
5.715024851617897639e+01,-3.441296863529387196e+01,3.300157783698571734e+01
5.754833590197027604e+01,-3.459225327848100306e+01,3.229574469013717675e+01
5.791726278367115555e+01,-3.479076453548807280e+01,3.158656768617850474e+01
5.825677631722520289e+01,-3.500831621392764248e+01,3.087505625107735696e+01
5.856664381701562405e+01,-3.524469081059140763e+01,3.016221669882873613e+01
5.884665291533627851e+01,-3.549963971744226399e+01,2.944905105523475441e+01
5.909661170793796003e+01,-3.577288346718836465e+01,2.873655588831595509e+01
5.931634888554989260e+01,-3.606411201816081302e+01,2.802572114675668402e+01
5.950571385128669988e+01,-3.637298507816849735e+01,2.731752900777656023e+01
5.966457682385986061e+01,-3.669913246695540465e+01,2.661295273580847009e+01
5.979282892652332038e+01,-3.704215451683836591e+01,2.591295555334977507e+01
5.989038226169228807e+01,-3.740162251105608959e+01,2.521848952533834165e+01
5.995716997118370983e+01,-3.777707915931410554e+01,2.453049445838808396e+01
5.999314628203762823e+01,-3.816803910996411986e+01,2.384989681620043100e+01
5.999828653788763688e+01,-3.857398949821152456e+01,2.317760865244776625e+01
5.997258721585915708e+01,-3.899439052970011943e+01,2.251452656240343941e+01
5.991606592898377670e+01,-3.942867609877955459e+01,2.186153065457009959e+01
5.982876141412822335e+01,-3.987625444071837677e+01,2.121948354353261124e+01
5.971073350544603642e+01,-4.033650881708359748e+01,2.058922936523653036e+01
5.956206309337017046e+01,-4.080879823346660373e+01,1.997159281586486301e+01
5.938285206917481673e+01,-4.129245818869558349e+01,1.936737821545718674e+01
5.917322325514420100e+01,-4.178680145463570028e+01,1.877736859738442732e+01
5.893332032039624835e+01,-4.229111888564001731e+01,1.820232482476117042e+01
5.866330768241899563e+01,-4.280468025667833842e+01,1.764298473484398855e+01
5.836337039438708985e+01,-4.332673512913467562e+01,1.710006231243015407e+01
5.803371401833558707e+01,-4.385651374323072105e+01,1.657424689323528710e+01
5.767456448427786597e+01,-4.439322793599870209e+01,1.606620239819199014e+01
5.728616793536468776e+01,-4.493607208369668626e+01,1.557656659957344303e+01
5.686879055918982573e+01,-4.548422406752731462e+01,1.510595041980678310e+01
5.642271840535845229e+01,-4.603684626149374992e+01,1.465493726380162087e+01
5.594825718944300519e+01,-4.659308654119766402e+01,1.422408238557726889e+01
5.544573208346098880e+01,-4.715207931235894279e+01,1.381391228993080844e+01
5.491548749301836807e+01,-4.771294655781171201e+01,1.342492416984517156e+01
5.435788682127112281e+01,-4.827479890170840093e+01,1.305758538029225058e+01
5.377331221986688803e+01,-4.883673668964181758e+01,1.271233294904239131e+01
5.316216432703732409e+01,-4.939785108337557062e+01,1.238957312504539843e+01
5.252486199302063596e+01,-4.995722516885429343e+01,1.208968096490313116e+01
5.186184199300262065e+01,-5.051393507614907463e+01,1.181299995790654656e+01
5.117355872777270065e+01,-5.106705110997742025e+01,1.155984169006347173e+01
5.046048391230032593e+01,-5.161563888942464473e+01,1.133048554749528591e+01
4.972310625244516302e+01,-5.215876049548090521e+01,1.112517845953310491e+01
4.896193111002243370e+01,-5.269547562499851523e+01,1.094413468179519633e+01
4.817748015645319981e+01,-5.322484274966557649e+01,1.078753561947867468e+01
4.737029101523684460e+01,-5.374592027858516019e+01,1.065552969104962422e+01
4.654091689349077399e+01,-5.425776772304462270e+01,1.054823223246635422e+01
4.568992620280982919e+01,-5.475944686205584588e+01,1.046572544202094335e+01
4.481790216970552621e+01,-5.525002290724627585e+01,1.040805836583499300e+01
4.392544243589156139e+01,-5.572856566568026437e+01,1.037524692399570903e+01
4.301315864869009431e+01,-5.619415069919251238e+01,1.036727397726887645e+01
4.208167604183933008e+01,-5.664586047881888931e+01,1.038408943427611852e+01
4.113163300698938940e+01,-5.708278553291544455e+01,1.042561039897411845e+01
4.016368065618065231e+01,-5.750402558756322691e+01,1.049172135822472285e+01
3.917848237560404812e+01,-5.790869069786571544e+01,1.058227440919583806e+01
3.817671337094937201e+01,-5.829590236875576892e+01,1.069708952628462484e+01
3.715906020465289572e+01,-5.866479466394164177e+01,1.083595486720617274e+01
3.612622032536190630e+01,-5.901451530163487291e+01,1.099862711784361125e+01
3.507890158993817664e+01,-5.934422673571909002e+01,1.118483187540775248e+01
3.401782177832820508e+01,-5.965310722103524199e+01,1.139426406940854797e+01
3.294370810163276531e+01,-5.994035186147795713e+01,1.162658841989386360e+01
3.185729670371268796e+01,-6.020517363961803881e+01,1.188143993236654872e+01
3.075933215667264164e+01,-6.044680442658775377e+01,1.215842442874534690e+01
2.965056695056861713e+01,-6.066449597098942093e+01,1.245711911369206781e+01
2.853176097768882258e+01,-6.085752086561249286e+01,1.277707317558423661e+01
2.740368101176145998e+01,-6.102517349077098885e+01,1.311780842136999503e+01
2.626710018244633460e+01,-6.116677093310073587e+01,1.347881994450172094e+01
2.512279744547036486e+01,-6.128165387868564551e+01,1.385957682510350786e+01
2.397155704877028981e+01,-6.136918747941269459e+01,1.425952286148986303e+01
2.281416799500825476e+01,-6.142876219148712380e+01,1.467807733211363441e+01
2.165142350082884803e+01,-6.145979458507329696e+01,1.511463578698522880e+01
2.048412045322798747e+01,-6.146172812406073405e+01,1.556857086756918740e+01
1.931305886340641464e+01,-6.143403391499103350e+01,1.603923315412929540e+01
1.813904131848195789e+01,-6.137621142421794929e+01,1.652595203946077262e+01
1.696287243143642698e+01,-6.128778916241198971e+01,1.702803662791572137e+01
1.578535828967405941e+01,-6.116832533555885476e+01,1.754477665859745983e+01
1.460730590256946115e+01,-6.101740846164243948e+01,1.807544345157056398e+01
1.342952264838374532e+01,-6.083465795224385886e+01,1.861929087590475262e+01
1.225281572092772997e+01,-6.061972465833005685e+01,1.917555633834559004e+01
1.107799157635166765e+01,-6.037229137954922464e+01,1.974346179137877400e+01
9.905855380440490521e+00,-6.009207333639353266e+01,2.032221475943286748e+01
8.737210456793350843e+00,-5.977881860463487129e+01,2.091100938194179903e+01
7.572857736265810047e+00,-5.943230851148459948e+01,2.150902747197013198e+01
6.413595208051801499e+00,-5.905235799297435761e+01,2.211543958908351470e+01
5.260217372781702316e+00,-5.863881591210195410e+01,2.272940612513121650e+01
4.113514698011300652e+00,-5.819156533733323045e+01,2.335007840159123305e+01
2.974273076474809763e+00,-5.771052378109938985e+01,2.397659977711520085e+01
1.843273287473240485e+00,-5.719564339797642560e+01,2.460810676389789720e+01
7.212904617672698526e-01,-5.664691114228322277e+01,2.524373015148607280e+01
-3.909064496586506232e-01,-5.606434888488265500e+01,2.588259613663223035e+01
-1.492555202596906438e+00,-5.544801348902012705e+01,2.652382745779222972e+01
-2.582900782020812525e+00,-5.479799684508304836e+01,2.716654453286020754e+01
-3.661195919534225407e+00,-5.411442586421444645e+01,2.780986659873064681e+01
-4.726701605511908433e+00,-5.339746243076356080e+01,2.845291285127564151e+01
-5.778687595579912184e+00,-5.264730331360592430e+01,2.909480358432531233e+01
-6.816432911088516455e+00,-5.186418003641554009e+01,2.973466132624090363e+01
-7.839226333234989852e+00,-5.104835870702051892e+01,3.037161197267320389e+01
-8.846366890497478153e+00,-5.020013980602384152e+01,3.100478591410435669e+01
-9.837164339045818551e+00,-4.931985793491978143e+01,3.163331915677769857e+01
-1.081093963580022965e+01,-4.840788152398521049e+01,3.225635443562843108e+01
-1.176702540381345763e+01,-4.746461250027415701e+01,3.287304231783880226e+01
-1.270476638965766902e+01,-4.649048591609176384e+01,3.348254229565261397e+01
-1.362351991250236871e+01,-4.548596953837187584e+01,3.408402386709767029e+01
-1.452265630457575618e+01,-4.445156339942958823e+01,3.467666760328020104e+01
-1.540155934270758209e+01,-4.338779930960674847e+01,3.525966620093155512e+01
-1.625962667065767420e+01,-4.229524033237477454e+01,3.583222551890632701e+01
-1.709627021194090091e+01,-4.117448022250413686e+01,3.639356559735097818e+01
-1.791091657286533589e+01,-4.002614282795479284e+01,3.694292165828332486e+01
-1.870300743550768985e+01,-3.885088145618580313e+01,3.747954508634689574e+01
-1.947199994035652537e+01,-3.764937820562507653e+01,3.800270438852820121e+01
-2.021736705836105941e+01,-3.642234326308264514e+01,3.851168613165153687e+01
-2.093859795213053943e+01,-3.517051416793193397e+01,3.900579585649310133e+01
-2.163519832603664739e+01,-3.389465504392369155e+01,3.948435896738577355e+01
-2.230669076497908065e+01,-3.259555579953633497e+01,3.994672159621532614e+01
-2.295261506158196951e+01,-3.127403129780485003e+01,4.039225143974152843e+01
-2.357252853159708650e+01,-2.993092049660679521e+01,4.082033856920995163e+01
-2.416600631729743043e+01,-2.856708556042016411e+01,4.123039621125473531e+01
-2.473264167865357166e+01,-2.718341094460213370e+01,4.162186149912812283e+01
-2.527204627209289356e+01,-2.578080245327102915e+01,4.199419619332915943e+01
-2.578385041665092459e+01,-2.436018627190582109e+01,4.234688737074178988e+01
-2.626770334733216927e+01,-2.292250797580802768e+01,4.267944808143147384e+01
-2.672327345550692002e+01,-2.146873151559997694e+01,4.299141797228923423e+01
-2.715024851617928903e+01,-1.999983818096147914e+01,4.328236387675328700e+01
-2.754833590197055315e+01,-1.851682554383299717e+01,4.355188036987996014e+01
-2.794040430829728905e+01,-1.683158742253450413e+01,4.331292817376628079e+01
-2.829198492700558631e+01,-1.519257889719960275e+01,4.304153293490248444e+01
-2.860490166856479988e+01,-1.360080855415339229e+01,4.273985566369820077e+01
-2.888096659300007119e+01,-1.205713355801834297e+01,4.241002437632071320e+01
-2.912197642503670281e+01,-1.056226598006668560e+01,4.205412721529259557e+01
-2.932970930114487373e+01,-9.116779274733087135e+00,4.167420622805734354e+01
-2.950592174362795816e+01,-7.721114857468007742e+00,4.127225178389524984e+01
-2.965234585648284238e+01,-6.375588740620202977e+00,4.085019760754379092e+01
-2.977068673739515603e+01,-5.080398187495694273e+00,4.040991640618765501e+01
-2.986262009991074962e+01,-3.835628348131848941e+00,3.995321606510790957e+01
-2.992979009954659020e+01,-2.641258843638782938e+00,3.948183638619911306e+01
-2.997380735736771840e+01,-1.497170269166807843e+00,3.899744634275314326e+01
-2.999624717435825616e+01,-4.031505886607972267e-01,3.850164182335052487e+01
-2.999864792975389705e+01,6.410986024624230062e-01,3.799594383736937431e+01
-2.998250965637663157e+01,1.635955967732841687e+00,3.748179715450246619e+01
-2.994929278591906296e+01,2.581874491450236508e+00,3.696056935073952587e+01
-2.990041705706271813e+01,3.479375727657459283e+00,3.643355023350979849e+01
-2.983726057928079811e+01,4.329044249584971915e+00,3.590195161906743238e+01
-2.976115904516805344e+01,5.131522310619381244e+00,3.536690743572268048e+01
-2.967340508415853506e+01,5.887504725719706400e+00,3.482947412715951430e+01
-2.957524775053177635e+01,6.597733980228069228e+00,3.429063133081717041e+01
-2.946789213866987112e+01,7.262995571190705490e+00,3.375128280713521178e+01
-2.935249911860897853e+01,7.884113584611786685e+00,3.321225759635638042e+01
-2.923018518502691876e+01,8.461946510515673481e+00,3.267431138053318307e+01
-2.910202241292381586e+01,8.997383296275586417e+00,3.213812802938215185e+01
-2.896903851338171876e+01,9.491339637383124028e+00,3.160432130966454878e+01
-2.883221698293075974e+01,9.944754503675717672e+00,3.107343673882927604e+01
-2.869249734020396403e+01,1.035858689799786347e+01,3.054595356472939116e+01
-2.855077544372577236e+01,1.073381284335061814e+01,3.002228685430438659e+01
-2.840790388485232043e+01,1.107142259376616167e+01,2.950278967520246098e+01
-2.826469245006206776e+01,1.137241806343132566e+01,2.898775535539106585e+01
-2.812190864698096249e+01,1.163781046796756868e+01,2.847741980686593166e+01
-2.798027828871968481e+01,1.186861817124502849e+01,2.797196390061215965e+01
-2.784048613129536420e+01,1.206586473066722398e+01,2.747151588099151454e+01
-2.770317655911088295e+01,1.223057713349274422e+01,2.697615380872455759e+01
-2.756895431366568516e+01,1.236378421646842618e+01,2.648590802259969834e+01
-2.743838526087646557e+01,1.246651526081578609e+01,2.600076361097296385e+01
-2.731199719258979286e+01,1.253979875444278669e+01,2.552066288501842450e+01
-2.719028065807275496e+01,1.258466131313766212e+01,2.504550784654809092e+01
-2.707368982147212577e+01,1.260212675243122327e+01,2.457516264404146966e+01
-2.696264334143388552e+01,1.259321530179165194e+01,2.410945601130643823e+01
-2.685752526927628381e+01,1.255894295282809203e+01,2.364818368393452630e+01
-2.675868596230747443e+01,1.250032093322682414e+01,2.319111078941526927e+01
-2.666644300907391241e+01,1.241835529822180639e+01,2.273797420743480657e+01
-2.658108216351852349e+01,1.231404663150067158e+01,2.228848489750432194e+01
-2.650285828521559850e+01,1.218838984757196542e+01,2.184233019164460643e+01
-2.643199628303446502e+01,1.204237408775760265e+01,2.139917605039358861e+01
-2.636869205976477915e+01,1.187698270212863960e+01,2.095866928090610770e+01
-2.631311345541130109e+01,1.169319330986690453e+01,2.052043971637906594e+01
-2.626540118703910309e+01,1.149197793070518969e+01,2.008410235646214659e+01
-2.622566978321488662e+01,1.127430318027689360e+01,1.964925946870458517e+01
-2.619400851125370977e+01,1.104113052238207793e+01,1.921550265144446001e+01
-2.617048229563492256e+01,1.079341657135736021e+01,1.878241485886751505e+01
-2.615513262610430445e+01,1.053211343791155485e+01,1.834957238925084866e+01
-2.614797845412447685e+01,1.025816911196101699e+01,1.791654683766265777e+01
-2.614901707647643292e+01,9.972527876165747429e+00,1.748290701461358765e+01
-2.615822500495150749e+01,9.676130744023764052e+00,1.704822083235008634e+01
-2.617555882120208111e+01,9.369915916533459566e+00,1.661205716064503335e+01
-2.620095601594541890e+01,9.054819251571714744e+00,1.617398765407818928e+01
-2.623433581183416763e+01,8.731774740265604962e+00,1.573358855290797464e+01
-2.627559996942135712e+01,8.401714984753237303e+00,1.529044245971895855e+01
-2.632463357575814555e+01,8.065571671833613010e+00,1.484414009408560631e+01
-2.638130581526552731e+01,7.724276037098779746e+00,1.439428202752393204e+01
-2.644547072262191634e+01,7.378759314220030952e+00,1.394048040100845043e+01
-2.651696791750239868e+01,7.029953164126371057e+00,1.348236062731298901e+01
-2.659562332109512539e+01,6.678790078866140512e+00,1.301956308039107313e+01
-2.668124985440606878e+01,6.326203754981512439e+00,1.255174477394422006e+01
-2.677364811844326198e+01,5.973129431252933941e+00,1.207858103123546556e+01
-2.687260705644854752e+01,5.620504185683167897e+00,1.159976714809055132e+01
-2.697790459841617761e+01,5.269267186593530106e+00,1.111502005089009337e+01
-2.708930828820571080e+01,4.920359892694402326e+00,1.062407995119322024e+01
-2.720657589362046380e+01,4.574726196972017433e+00,1.012671199844576009e+01
-2.732945599988215335e+01,4.233312509204408158e+00,9.622707932014225918e+00
-2.745768858698903259e+01,3.897067771880007747e+00,9.111887733550165791e+00
-2.759100559149658594e+01,3.566943404248191563e+00,8.594101280427119960e+00
-2.772913145330916862e+01,3.243893169179188352e+00,8.069230000704704864e+00
-2.787178364811639852e+01,2.928872957455755266e+00,7.537188529759943911e+00
-2.801867320614981693e+01,2.622840484061892852e+00,6.997926368385008367e+00
-2.816950521797494034e+01,2.326754890975452295e+00,6.451429541781823040e+00
-2.832397932806937391e+01,2.041576250915862811e+00,5.897722258487821279e+00
-2.848179021697053415e+01,1.768264966446003950e+00,5.336868567841777988e+00
-2.864262807280704948e+01,1.507781058781801464e+00,4.768974014144978568e+00
-2.880617905305457427e+01,1.261083340627386251e+00,4.194187285189305392e+00
-2.897212573738209684e+01,1.029128467329163410e+00,3.612701852310426620e+00
-2.914014757247610632e+01,8.128698606343146560e-01,3.024757598580840590e+00
-2.930992130975015897e+01,6.132564993484412863e-01,2.430642431183347441e+00
-2.948112143686381970e+01,4.312315712198551143e-01,1.830693873401341376e+00
-2.965342060399003543e+01,2.677309804354522371e-01,1.225300631027398390e+00
-2.982649004578193797e+01,1.236817052009872298e-01,6.149041273270005048e-01
-3.000000000000000355e+01,-1.622240506067740606e-14,-8.660511836852046587e-14
-3.017362012376867852e+01,-1.024105627149489856e-01,-6.188604471411461860e-01
-3.034701990843614183e+01,-1.826612164422819484e-01,-1.241068845805621379e+00
-3.051986909401493975e+01,-2.398802949575250254e-01,-1.865958426981781715e+00
-3.069183808418158677e+01,-2.732157015376964759e-01,-2.492802756424179034e+00
-3.086259836281232438e+01,-2.818375572180053523e-01,-3.120814552304735034e+00
-3.103182291302867668e+01,-2.649410317934211001e-01,-3.749144596303795485e+00
-3.119918663972089590e+01,-2.217493607893542829e-01,-4.376880750277694077e+00
-3.136436679650906356e+01,-1.515170510640623802e-01,-5.003047091512713429e+00
-3.152704341809209154e+01,-5.353327706627224181e-02,-5.626603180457804498e+00
-3.168689975892164057e+01,7.287453095162427230e-02,-6.246443475715292237e+00
-3.184362273912370256e+01,2.283369062759079693e-01,-6.861396911954606104e+00
-3.199690339857280108e+01,4.134383730462027895e-01,-7.470226657293345340e+00
-3.214643736000437713e+01,6.287132829640234011e-01,-8.071630067555144450e+00
-3.229192530202848843e+01,8.746414639253460299e-01,-8.664238855658609850e+00
-3.243307344288302829e+01,1.151643684324680006e+00,-9.246619495206848782e+00
-3.256959403573698353e+01,1.460076938108398670e+00,-9.817273878124321840e+00
-3.270120587632415265e+01,1.800229557101754141e+00,-1.037464024691754005e+01
-3.282763482365419350e+01,2.172316158701740996e+00,-1.091709442280676967e+01
-3.294861433451173838e+01,2.576472438717428926e+00,-1.144295135157736532e+01
-3.306388601241504688e+01,3.012749820955170854e+00,-1.195046698951822783e+01
-3.317320017166300516e+01,3.481109977087478047e+00,-1.243784055223836482e+01
-3.327631641705389143e+01,3.981419232412549025e+00,-1.290321714946727916e+01
-3.337300423980933317e+01,4.513442875306431290e+00,-1.334469082913466487e+01
-3.346304363018496986e+01,5.076839390488328441e+00,-1.376030805407579294e+01
-3.354622570719256913e+01,5.671154638659978708e+00,-1.414807163460338657e+01
-3.362235336579750111e+01,6.295816007637304423e+00,-1.450594513990766821e+01
-3.369124194189262766e+01,6.950126562760079452e+00,-1.483185781077789223e+01
-3.375271989528019390e+01,7.633259227136899305e+00,-1.512370999545898620e+01
-3.380662951082191370e+01,8.344251025146895984e+00,-1.537937912955244002e+01
-3.385282761783989969e+01,9.081997425567013948e+00,-1.559672627971671410e+01
-3.339118632777127971e+01,9.845246823707904937e+00,-1.577360326950535629e+01
-3.292159378999173214e+01,1.062796734621523242e+01,-1.591095262747714045e+01
-3.244395496563527814e+01,1.142851635480221084e+01,-1.600733416353355310e+01
-3.195819241914079711e+01,1.224516673962482649e+01,-1.606135568819254544e+01
-3.146424712715653627e+01,1.307610741284234201e+01,-1.607167723335447818e+01
-3.096207930432902344e+01,1.391944398074054057e+01,-1.603701536474553890e+01
-3.045166924539271847e+01,1.477319960609986182e+01,-1.595614758182202664e+01
-2.993301818286134974e+01,1.563531607273470847e+01,-1.582791679999939660e+01
-2.940614915950268582e+01,1.650365506431825224e+01,-1.565123590910092943e+01
-2.887110791465130077e+01,1.737599966973680665e+01,-1.542509240090604195e+01
-2.832796378328483655e+01,1.825005612728191906e+01,-1.514855305762251980e+01
-2.777681060665173973e+01,1.912345581998364352e+01,-1.482076869200774638e+01
-2.721776765309786938e+01,1.999375753430945224e+01,-1.444097892873053723e+01
-2.665098054759253188e+01,2.085844999429484403e+01,-1.400851701539750316e+01
-2.607662220830213684e+01,2.171495468293045406e+01,-1.352281465046981168e+01
-2.549489378840318210e+01,2.256062896229948223e+01,-1.298340681407578323e+01
-2.490602562116351137e+01,2.339276950353721674e+01,-1.238993658648222862e+01
-2.431027816615397086e+01,2.420861603716294752e+01,-1.174215993773295175e+01
-2.370794295428035880e+01,2.500535543371381308e+01,-1.103995047069817126e+01
-2.309934352914899236e+01,2.578012612388247504e+01,-1.028330409851295180e+01
-2.248483638209832947e+01,2.653002286652463226e+01,-9.472343636123349953e+00
-2.186481187804336912e+01,2.725210187195407840e+01,-8.607323284408666453e+00
-2.123969516909106403e+01,2.794338628687930992e+01,-7.688632984122826031e+00
-2.060994709269179737e+01,2.860087204615422607e+01,-6.716802615696757073e+00
-1.972606505089719064e+01,2.922153409521406786e+01,-5.692506019782617166e+00
-1.867330608931126434e+01,2.980166121829385872e+01,-4.620899337090377479e+00
-1.753279883858423105e+01,3.033835918936141240e+01,-3.506107245711568066e+00
-1.638987764773746392e+01,3.082933047338280019e+01,-2.351113229878744271e+00
-1.524519446064007866e+01,3.127264100631193600e+01,-1.157532886411400730e+00
-1.409944176453391051e+01,3.166644305503258749e+01,7.295010596343730336e-02
-1.295335327262428926e+01,3.200897856309808986e+01,1.338588414794434911e+00
-1.180770455810943353e+01,3.229858236792016157e+01,2.637575569673889841e+00
-1.066331363459753412e+01,3.253368529061827985e+01,3.968050560351344735e+00
-9.521041477659569097e+00,3.271281709964395645e+01,5.328102511898427984e+00
-8.381792482070837380e+00,3.283460934919516916e+01,6.715775431529184658e+00
-7.246514849101508560e+00,3.289779809333548855e+01,8.129073021545313082e+00
-6.116200898030159649e+00,3.290122647663218913e+01,9.565963552702198669e+00
-4.991887295874730235e+00,3.284384720203096464e+01,1.102438479208084310e+01
-3.874655199162064356e+00,3.272472487658922091e+01,1.250224897931093793e+01
-2.765630301394805812e+00,3.254303823560120179e+01,1.399744784471288028e+01
-1.665982779720486029e+00,3.229808224556206397e+01,1.550785766262391441e+01
-5.769271341663952946e-01,3.198927008633831548e+01,1.703134433284059313e+01
5.002780873244434545e-01,3.161613501283845906e+01,1.856576848275022584e+01
1.564330684935332449e+00,3.117833209640704695e+01,2.010899058234420522e+01
2.613885331072205886e+00,3.067563984610255545e+01,2.165887606390064946e+01
3.647554229570849849e+00,3.010796170995832099e+01,2.321330043770405638e+01
4.663907917131788317e+00,2.947532745626923756e+01,2.477015439473045788e+01
5.661476214138771113e+00,2.877789443489375287e+01,2.632734888677413920e+01
6.638749332032912065e+00,2.801594871850473467e+01,2.788282017403156132e+01
7.594179144405316606e+00,2.718990612367213089e+01,2.943453482968403989e+01
8.526180628935490446e+00,2.630031311160081486e+01,3.098049469054718585e+01
9.433133487237618908e+00,2.534784756828855379e+01,3.251874174237565285e+01
1.031338394958166127e+01,2.433331946380311450e+01,3.404736292793185015e+01
1.116524677132703403e+01,2.325767139029999697e+01,3.556449486545707828e+01
1.198700742774388139e+01,2.212197897832059112e+01,3.706832846471147747e+01
1.277692451369533266e+01,2.092745119080815996e+01,3.855711342729739499e+01
1.353323235441544803e+01,1.967543049416862644e+01,4.002916261753368588e+01
1.425414383333563428e+01,1.836739290556865001e+01,4.148285628972607952e+01
1.493785344258830072e+01,1.700494791551130902e+01,4.291664615727393084e+01
1.558254056144712507e+01,1.558983828455506249e+01,4.432905928867335632e+01
1.571361367974626866e+01,1.396873158412544313e+01,4.521629849848109473e+01
1.581552629395499743e+01,1.234527346951084681e+01,4.605378131041273804e+01
1.588855123328263019e+01,1.072193689766897684e+01,4.684237954373582369e+01
1.593298112510786702e+01,9.101130039934805183e+00,4.758304416946010207e+01
1.594912819442662411e+01,7.485194251336355187e+00,4.827679993756844823e+01
1.593732404986859308e+01,5.876402331454999128e+00,4.892474000643524334e+01
1.589791945642925874e+01,4.276957067391552236e+00,4.952802058915150951e+01
1.583128409507312284e+01,2.688990048824853929e+00,5.008785563058918200e+01
1.573780630937277181e+01,1.114560744645053836e+00,5.060551152814910125e+01
1.561789283935765837e+01,-4.443441697953193770e-01,5.108230190825543815e+01
1.547196854275475708e+01,-1.985811246145863684e+00,5.151958246978435341e+01
1.530047610381232381e+01,-3.508000468885538847e+00,5.191874590475262607e+01
1.510387572990621230e+01,-5.009145245416347869e+00,5.228121690574395330e+01
1.488264483613672873e+01,-6.487552192527205719e+00,5.260844726872204546e+01
1.463727771813219292e+01,-7.941600731477908681e+00,5.290191109906952960e+01
1.436828521328335384e+01,-9.369742504050433851e+00,5.316310012790742690e+01
1.407619435064099456e+01,-1.077050062196280145e+01,5.339351914498803353e+01
1.376154798971655957e+01,-1.214246876204407144e+01,5.359468155372197629e+01
1.342490444843332753e+01,-1.348431011953138814e+01,5.376810505319504330e+01
1.306683712048321944e+01,-1.479475623177129151e+01,5.391530745135653291e+01
1.268793408235140241e+01,-1.607260568449272498e+01,5.403780261291822740e+01
1.228879769027801139e+01,-1.731672271267093777e+01,5.413709654489289846e+01
1.187004416743330104e+01,-1.852603570782086351e+01,5.421468362212445413e+01
1.140312108282376791e+01,-1.969953564334914375e+01,5.427204295461918093e+01
1.084626893963914185e+01,-2.083719648281747538e+01,5.431028114320107392e+01
1.022178645219359794e+01,-2.194039307497767055e+01,5.432986673378381681e+01
9.545047420333663268e+00,-2.300987242619857653e+01,5.433135887361790139e+01
8.826730915697689639e+00,-2.404596544197919528e+01,5.431538719794249204e+01
8.074334058732988595e+00,-2.504873119416823357e+01,5.428263369253819093e+01
7.293198113636433888e+00,-2.601805511122746140e+01,5.423381740237754656e+01
6.487204423187258762e+00,-2.695371571945638678e+01,5.416968204338870407e+01
5.659246365746140484e+00,-2.785542993044980875e+01,5.409098621991066835e+01
4.811549367000385047e+00,-2.872288370124096701e+01,5.399849583066738035e+01
3.945887832393910166e+00,-2.955575272706836643e+01,5.389297824045067387e+01
3.063732150279522504e+00,-3.035371634617334635e+01,5.377519783909595219e+01
2.166348254399392825e+00,-3.111646682478439629e+01,5.364591267063018165e+01
1.254865001745244735e+00,-3.184371550007601570e+01,5.350587187741274420e+01
3.303197153936667241e-01,-3.253519678782557634e+01,5.335581375949831795e+01
-6.063110865532123084e-01,-3.319067074022987640e+01,5.319646429588376435e+01
-1.554091012771979141e+00,-3.380992462035703738e+01,5.302853601166371789e+01
-2.512109939896596700e+00,-3.439277381051091709e+01,5.285272710435901189e+01
-3.479474780836704806e+00,-3.493906227018412380e+01,5.266972076510803191e+01
-4.455303392934029105e+00,-3.544866269011720306e+01,5.248018464734852273e+01
-5.438720616871351332e+00,-3.592147644192898071e+01,5.228477044825726239e+01
-6.428855761662494395e+00,-3.635743339078099723e+01,5.208411357755603177e+01
-7.424841071129014480e+00,-3.675649161678470733e+01,5.187883289514187624e+01
-8.425810856566448237e+00,-3.711863707607383844e+01,5.166953050399023795e+01
-9.430901081583209944e+00,-3.744388322242171085e+01,5.145679158839472223e+01
-1.043924925380285806e+01,-3.773227060346012962e+01,5.124118429021813625e+01
-1.144999452473011381e+01,-3.798386644092629183e+01,5.102325961770552709e+01
-1.246227793070060663e+01,-3.819876420122050575e+01,5.080355138275686500e+01
-1.347524272928493083e+01,-3.837708316042431989e+01,5.058257616352360486e+01
-1.448803480006931466e+01,-3.851896796648354382e+01,5.036083328988409846e+01
-1.549980308860737210e+01,-3.862458820027955397e+01,5.013880484985102726e+01
-1.650970007903503145e+01,-3.869413793664950418e+01,4.991695571532108744e+01
-1.751688228538463932e+01,-3.872783530596752399e+01,4.969573358583725309e+01
-1.852051075471745989e+01,-3.872592205659681497e+01,4.947556904922230103e+01
-1.951975157728610100e+01,-3.868866311831978777e+01,4.925687565808325985e+01
-2.051377640035835270e+01,-3.861634616671849329e+01,4.904005002129004964e+01
-2.150176294329825666e+01,-3.850928118838831438e+01,4.882547190961226136e+01
-2.248289551215524185e+01,-3.836780004681105538e+01,4.861350437476018271e+01
-2.345636551245746659e+01,-3.819225604867731505e+01,4.840449388112563156e+01
-2.442137195920861714e+01,-3.798302351042755731e+01,4.819877044955917711e+01
-2.537712198329445812e+01,-3.774049732477031682e+01,4.799664781255454216e+01
-2.632283133364672878e+01,-3.746509252693295622e+01,4.779842358024050952e+01
-2.725772487460947602e+01,-3.715724386040152183e+01,4.760437941660645578e+01
-2.818103707802022839e+01,-3.681740534191170866e+01,4.741478122541144558e+01
-2.909201250956557061e+01,-3.644604982546018590e+01,4.722987934524748965e+01
-2.998990630900431853e+01,-3.604366856511550310e+01,4.704990875324789812e+01
-3.087398466387576335e+01,-3.561077077641787980e+01,4.687508927694984351e+01
-3.174352527632868970e+01,-3.514788319616985035e+01,4.670562581383694578e+01
-3.259781782272082751e+01,-3.465554964043131037e+01,4.654170855810534135e+01
-3.343616440565008929e+01,-3.413433056054621062e+01,4.638351323421091621e+01
-3.425787999808812145e+01,-3.358480259704125359e+01,4.623120133677126375e+01
-3.506229287929553351e+01,-3.300755813125118721e+01,4.608492037640935024e+01
-3.584874506220569401e+01,-3.240320483453849931e+01,4.594480413113981854e+01
-3.661659271197134302e+01,-3.177236521499020583e+01,4.581097290291222635e+01
-3.736520655537558611e+01,-3.111567616148825621e+01,4.568353377893714651e+01
-3.809397228081563469e+01,-3.043378848506484147e+01,4.556258089743382556e+01
-3.880229092857474882e+01,-2.972736645746724093e+01,4.544819571744952214e+01
-3.948957927110514987e+01,-2.899708734687240508e+01,4.534044729241136906e+01
-4.015527018305153462e+01,-2.824364095070461644e+01,4.523939254708307800e+01
-4.079881300075243189e+01,-2.746772912552413359e+01,4.514507655760829152e+01
-4.141967387096388364e+01,-2.667006531396910773e+01,4.505753283433296730e+01
-4.201733608855769120e+01,-2.585137406874611443e+01,4.497678360710845880e+01
-4.259130042295410590e+01,-2.501239057367897800e+01,4.490284011278664167e+01
-4.314108543305674459e+01,-2.415386016183888174e+01,4.483570288462672693e+01
-4.366622777046573844e+01,-2.327653783079200167e+01,4.477536204334278125e+01
-4.416628247075292535e+01,-2.238118775501424906e+01,4.472179758952902517e+01
-4.464082323259169272e+01,-2.146858279553526572e+01,4.467497969720783857e+01
-4.508944268454213500e+01,-2.053950400688637501e+01,4.463486900825390080e+01
-4.551175263930115023e+01,-1.959474014143984633e+01,4.460141692745497721e+01
-4.590738433523537765e+01,-1.863508715123877835e+01,4.457456591797732415e+01
-4.627598866502439989e+01,-1.766134768742807637e+01,4.455424979701114552e+01
-4.661723639124971896e+01,-1.667433059740946177e+01,4.454039403137810638e+01
-4.693081834877494884e+01,-1.567485041985353611e+01,4.453291603288987943e+01
-4.721644563377126502e+01,-1.466372687771344019e+01,4.453172545325328002e+01
-4.747384977925165828e+01,-1.364178436939458905e+01,4.453672447832380499e+01
-4.770278291698688378e+01,-1.260985145824552234e+01,4.454780812151577152e+01
-4.790301792568541828e+01,-1.156876036054416268e+01,4.456486451618309275e+01
-4.807434856532928791e+01,-1.051934643216360143e+01,4.458777520679080197e+01
-4.821658959756727114e+01,-9.462447654110402340e+00,4.461641543870326387e+01
-4.832957689207643881e+01,-8.398904117136769543e+00,4.465065444642031878e+01
-4.841316751881316094e+01,-7.329557505636824288e+00,4.469035574009838285e+01
-4.846723982608389036e+01,-6.255250581044641045e+00,4.473537739019874238e+01
-4.849169350437648518e+01,-5.176826664959225610e+00,4.478557231011060225e+01
-4.848644963590214729e+01,-4.095129122229246299e+00,4.484078853660143693e+01
-4.845145072980835721e+01,-3.011000844236487062e+00,4.490086950795232923e+01
-4.838666074303282727e+01,-1.925283732623690236e+00,4.496565433964078551e+01
-4.829206508677859944e+01,-8.388181837184449652e-01,4.503497809743842595e+01
-4.816767061860031873e+01,2.475574260898096290e-01,4.510867206779566629e+01
-4.801350562010174627e+01,1.333007253757350075e+00,4.518656402538972117e+01
-4.782961976025420370e+01,2.416698501510707420e+00,4.526847849771753829e+01
-4.761608404435614972e+01,3.497801927017212265e+00,4.535423702661902468e+01
-4.737299074866346160e+01,4.575492351525190848e+00,4.544365842662048038e+01
-4.710045334073028300e+01,5.648949165695246855e+00,4.553655903999271004e+01
-4.679860638551006957e+01,6.717356832839310954e+00,4.563275298842203398e+01
-4.646760543727607740e+01,7.779905389282556705e+00,4.573205242119696123e+01
-4.610762691743087771e+01,8.835790941560063061e+00,4.583426775981690326e+01
-4.571886797828359761e+01,9.884216160157992093e+00,4.593920793893369137e+01
-4.530154635288383247e+01,1.092439076950782884e+01,4.604668064354044077e+01
-4.485590019101043424e+01,1.195553203394004349e+01,4.615649254232589982e+01
-4.438218788142313542e+01,1.297686523930325997e+01,4.626844951711678533e+01
-4.388068786049444014e+01,1.398762416995420033e+01,4.638235688833345449e+01
-4.335169840734855029e+01,1.498705158082290723e+01,4.649801963638911673e+01
-4.279553742564353058e+01,1.597439966425861435e+01,4.661524261896506971e+01
-4.221254221214203284e+01,1.694893051136144635e+01,4.673383078409897706e+01
-4.160306921222505849e+01,1.790991656750615846e+01,4.685358937902648080e+01
-4.096749376251233343e+01,1.885664108176530718e+01,4.697432415471932643e+01
-4.030620982076163727e+01,1.978839854994053482e+01,4.709584156606751293e+01
-3.961962968322846024e+01,2.070449515091271664e+01,4.721794896765525351e+01
-3.890818368967556040e+01,2.160424917602363593e+01,4.734045480508487458e+01
-3.817231991623113885e+01,2.248699145120396281e+01,4.746316880180503261e+01
-3.741250385630221587e+01,2.335206575156631104e+01,4.758590214140350128e+01
-3.662921808975836768e+01,2.419882920818355032e+01,4.770846764532753781e+01
-3.582296194060885597e+01,2.502665270677735521e+01,4.783067994599815620e+01
-3.499425112340436783e+01,2.583492127804464289e+01,4.795235565528742683e+01
-3.414361737860217971e+01,2.662303447935454415e+01,4.807331352833103466e+01
-3.327160809714121825e+01,2.739040676755169557e+01,4.819337462265128380e+01
-3.237878593448102293e+01,2.813646786260698818e+01,4.831236245256855710e+01
-3.146572841436595169e+01,2.886066310186176054e+01,4.843010313888223806e+01
-3.053302752258266040e+01,2.956245378461560591e+01,4.854642555380457480e+01
-2.958128929098646154e+01,3.024131750681470976e+01,4.866116146113406415e+01
-2.861113337207829943e+01,3.089674848560177267e+01,4.877414565165760507e+01
-2.762319260442096436e+01,3.152825787349576458e+01,4.888521607377295908e+01
-2.661811256918925039e+01,3.213537406197463042e+01,4.899421395932624534e+01
-2.559655113815523109e+01,3.271764297424154933e+01,4.910098394466130145e+01
-2.455917801341529128e+01,3.327462834696063965e+01,4.920537418688071085e+01
-2.350667425917172793e+01,3.380591200075620151e+01,4.930723647532011711e+01
-2.243973182588682036e+01,3.431109409927498888e+01,4.940642633824091945e+01
-2.135905306713289420e+01,3.478979339661953674e+01,4.950280314474782983e+01
-2.026535024946668528e+01,3.524164747296720890e+01,4.959623020194072041e+01
-1.915934505566130497e+01,3.566631295819713898e+01,4.968657484731244978e+01
-1.804176808163361656e+01,3.606346574335545085e+01,4.977370853640656634e+01
-1.691335832740929490e+01,3.643280117979645638e+01,4.985750692575096821e+01
-1.577486268247181833e+01,3.677403426584623247e+01,4.993784995108594416e+01
-1.462703540584570483e+01,3.708689982084246139e+01,5.001462190090717996e+01
-1.347063760126780529e+01,3.737115264641332146e+01,5.008771148534636097e+01
-1.230643668780407296e+01,3.762656767486670617e+01,5.015701190041407642e+01
-1.113520586627208964e+01,3.785294010456930636e+01,5.022242088763188406e+01
-9.957723581832858883e+00,3.805008552220390072e+01,5.028384078908246835e+01
-8.774772983117827607e+00,3.821784001180284207e+01,5.034117859790839589e+01
-7.587141378259697255e+00,3.835606025046335077e+01,5.039434600429238031e+01
-6.395619688197423436e+00,3.846462359066055114e+01,5.044325943695373127e+01
-5.201001897628160897e+00,3.854342812908248561e+01,5.048784010019731738e+01
-4.004084503980157805e+00,3.859239276192105450e+01,5.052801400655329900e+01
-2.805665964782237509e+00,3.861145722656227264e+01,5.056371200504780461e+01
-1.606546143806543148e+00,3.860058212962765367e+01,5.059486980514640209e+01
-4.075257563621025314e-01,3.855974896132953944e+01,5.062142799641357271e+01
7.905941858826013302e-01,3.848896009611114266e+01,5.064333206393381914e+01
1.987012930169434144e+00,3.838823877955260144e+01,5.066053239954067777e+01
3.180930537634279354e+00,3.825762910153358121e+01,5.067298430890245697e+01
4.371548437625958350e+00,3.809719595565236716e+01,5.068064801451439649e+01
5.558069980982465630e+00,3.790702498491131678e+01,5.068348865464884057e+01
6.739700991887009884e+00,3.768722251368828324e+01,5.068147627831612567e+01
7.915650317927584112e+00,3.743791546602231080e+01,5.067458583629085922e+01
9.085130377984706129e+00,3.715925127025302288e+01,5.066279716825906831e+01
1.024735770757362374e+01,3.685139775006120999e+01,5.064609498614360206e+01
1.140155350126890355e+01,3.651454300196895275e+01,5.062446885366605898e+01
1.254694415184132517e+01,3.614889525936615655e+01,5.059791316220510282e+01
1.368276178573920632e+01,3.575468274314064843e+01,5.056642710301212418e+01
1.480824479454878428e+01,3.533215349899811741e+01,5.053001463584656960e+01
1.592263836207100347e+01,3.488157522156748769e+01,5.048868445409421213e+01
1.702519498665498432e+01,3.440323506539700560e+01,5.044244994643305802e+01
1.811517499843179024e+01,3.389743944295535982e+01,5.039132915511245159e+01
1.919184707109542387e+01,3.336451380976158987e+01,5.033534473091221173e+01
2.025448872788184929e+01,3.280480243677631336e+01,5.027452388484949353e+01
2.130238684140062233e+01,3.221866817019648011e+01,5.020889833670221236e+01
2.233483812697813420e+01,3.160649217880393635e+01,5.013850426041869213e+01
2.335114962917557335e+01,3.096867368902806561e+01,5.006338222648430758e+01
2.435063920114971836e+01,3.030562970789046062e+01,4.998357714131658014e+01
2.533263597652921817e+01,2.961779473400889984e+01,4.989913818376120247e+01
2.629648083348445198e+01,2.890562045684607639e+01,4.981011873876214224e+01
2.724152685067405599e+01,2.816957544439729944e+01,4.971657632827992757e+01
2.816713975475704501e+01,2.741014481951910398e+01,4.961857253953272817e+01
2.907269835916502032e+01,2.662782992510934577e+01,4.951617295063581281e+01
2.995759499383499147e+01,2.582314797835702080e+01,4.940944705371551748e+01
3.082123592560954961e+01,2.499663171428797170e+01,4.929846817557434946e+01
3.166304176901738288e+01,2.414882901884037381e+01,4.918331339598466911e+01
3.248244788715390996e+01,2.328030255171141505e+01,4.906406346368884641e+01
3.327890478238823846e+01,2.239162935922341902e+01,4.894080271018457751e+01
3.405187847663010814e+01,2.148340047746584602e+01,4.881361896137367751e+01
3.480085088089700207e+01,2.055622052597566096e+01,4.868260344715454124e+01
3.552532015392942810e+01,1.961070729222564424e+01,4.854785070903741229e+01
3.622480104960963132e+01,1.864749130719713932e+01,4.840945850586302157e+01
3.689882525294667914e+01,1.766721541231954973e+01,4.826752771770491535e+01
3.754694170439868373e+01,1.667053431806593622e+01,4.812216224803646014e+01
3.816871691231089159e+01,1.565811415449923771e+01,4.797346892424344844e+01
3.876373525325664815e+01,1.463063201406984959e+01,4.782155739656383275e+01
3.933159926007608931e+01,1.358877548697115323e+01,4.766654003553590968e+01
3.987192989741652127e+01,1.253324218936445611e+01,4.750853182803687247e+01
4.038436682458620197e+01,1.146473928479029603e+01,4.734765027199323129e+01
4.086856864554263780e+01,1.038398299908802969e+01,4.718401526984531102e+01
4.132421314584473748e+01,9.291698129149958518e+00,4.701774902084760299e+01
4.175099751640755130e+01,8.188617545841426093e+00,4.684897591228695291e+01
4.214863856390689989e+01,7.075481691421851238e+00,4.667782240970047525e+01
4.251687290769078942e+01,5.953038071806192377e+00,4.650441694617519772e+01
4.285545716306333475e+01,4.822040744009856716e+00,4.632888981081109137e+01
4.316416811081658977e+01,3.683249799123625046e+00,4.615137303642919875e+01
4.344280285289475785e+01,2.537430841168850204e+00,4.597200028660623161e+01
4.369117895408500374e+01,1.385354462185547586e+00,4.579090674211716561e+01
4.390913456963857442e+01,2.277957139093685635e-01,4.560822898686651428e+01
4.409652855873552113e+01,-9.344664236042463656e-01,4.542410489338934809e+01
4.425324058371597857e+01,-2.100649576047857181e+00,4.523867350800223619e+01
4.437917119501084073e+01,-3.269968511259412125e+00,4.505207493568447319e+01
4.447424190171438596e+01,-4.441635677584364394e+00,4.486445022476909372e+01
4.453839522775101756e+01,-5.614861743836688568e+00,4.467594125152300677e+01
4.457159475359872403e+01,-6.788856140491294155e+00,4.448669060469513425e+01
4.457382514354088698e+01,-7.962827601739549621e+00,4.429684147011089834e+01
4.454509215842895742e+01,-9.135984708038796143e+00,4.410653751539085476e+01
4.448542265394748085e+01,-1.030753642878604737e+01,4.391592277487055895e+01
4.439486456438373096e+01,-1.147669266474613892e+01,4.372514153479874466e+01
4.427348687191339138e+01,-1.264266478986424147e+01,4.353433821888941679e+01
4.412137956142424144e+01,-1.380466619209342660e+01,4.334365727430335369e+01
4.393865356090931584e+01,-1.496191281286761487e+01,4.315324305813388861e+01
4.372544066747106939e+01,-1.611362368485224295e+01,4.296323972447066097e+01
4.348189345898778413e+01,-1.725902146760473244e+01,4.277379111211452312e+01
4.320818519150352444e+01,-1.839733298077931778e+01,4.258504063301621301e+01
4.290450968241243856e+01,-1.952778973451123434e+01,4.239713116150998218e+01
4.257108117951798931e+01,-2.064962845661823465e+01,4.221020492441324024e+01
4.220813421605770088e+01,-2.176209161625835620e+01,4.202440339206149389e+01
4.181592345179298320e+01,-2.286442794368592146e+01,4.183986717034807157e+01
4.139472350027377701e+01,-2.395589294575007244e+01,4.165673589383602859e+01
4.094482874239684378e+01,-2.503574941678299126e+01,4.147514812000913764e+01
4.046655312638600321e+01,-2.610326794452776156e+01,4.129524122472820125e+01
3.996022995433192193e+01,-2.715772741075958052e+01,4.111715129895734577e+01
3.942621165543831552e+01,-2.819841548625736394e+01,4.094101304682368436e+01
3.886486954613050671e+01,-2.922462911978642452e+01,4.076695968507358714e+01
3.827659357719106481e+01,-3.023567502075709612e+01,4.059512284398662274e+01
3.766179206809656677e+01,-3.123087013522830802e+01,4.042563246980753888e+01
3.702089142873787608e+01,-3.220954211493003072e+01,4.025861672875567621e+01
3.635433586871512546e+01,-3.317102977898244376e+01,4.009420191266931965e+01
3.566258709440725028e+01,-3.411468356799530000e+01,3.993251234634187341e+01
3.494612399402392100e+01,-3.503986599023578918e+01,3.977367029660524622e+01
3.420544231085644782e+01,-3.594595205955886996e+01,3.961779588321430623e+01
3.344105430495174858e+01,-3.683232972479896716e+01,3.946500699158536207e+01
3.265348840344189796e+01,-3.769840029032877027e+01,3.931541918743988617e+01
3.184328883976924018e+01,-3.854357882749576447e+01,3.916914563340350952e+01
3.101101528205480662e+01,-3.936729457665428811e+01,3.902629700760900278e+01
3.015724245086501654e+01,-4.016899133951654477e+01,3.888698142435012528e+01
2.928255972663916751e+01,-4.094812786155321049e+01,3.875130435683244201e+01
2.838757074704716743e+01,-4.170417820418050070e+01,3.861936856206499868e+01
2.747289299455368905e+01,-4.243663210647812178e+01,3.849127400793589260e+01
2.653915737447196577e+01,-4.314499533618921134e+01,3.836711780251276593e+01
2.558700778379671803e+01,-4.382879002976064697e+01,3.824699412560814693e+01
2.461710067111208033e+01,-4.448755502119026772e+01,3.813099416264768138e+01
2.363010458787652723e+01,-4.512084615945424559e+01,3.801920604087781186e+01
2.262669973139266943e+01,-4.572823661429639230e+01,3.791171476794814765e+01
2.160757747977550025e+01,-4.630931717016878935e+01,3.780860217290175029e+01
2.057343991923817228e+01,-4.686369650812140009e+01,3.770994684960518128e+01
1.952499936401956404e+01,-4.739100147544628783e+01,3.761582410264867349e+01
1.846297786928307971e+01,-4.789087734289103082e+01,3.752630589574446418e+01
1.738810673732076140e+01,-4.836298804926364170e+01,3.744146080265099386e+01
1.630112601740143674e+01,-4.880701643326054295e+01,3.736135396064739922e+01
1.520278399960621485e+01,-4.922266445235773347e+01,3.728604702658228121e+01
1.409383670299814462e+01,-4.960965338861410601e+01,3.721559813551836271e+01
1.297504735847758184e+01,-4.996772404124476452e+01,3.715006186199342864e+01
1.184718588667765360e+01,-5.029663690583139157e+01,3.708948918391570970e+01
1.071102837125805429e+01,-5.059617234004588937e+01,3.703392744911071333e+01
9.567356527958525092e+00,-5.086613071577258438e+01,3.698342034453421689e+01
8.416957169775988845e+00,-5.110633255752380677e+01,3.693800786816502324e+01
7.260621668632414760e+00,-5.131661866705317010e+01,3.689772630358852723e+01
6.099145413902388846e+00,-5.149685023407964479e+01,3.686260819728163085e+01
4.933327268171946223e+00,-5.164690893304609176e+01,3.683268233860621876e+01
3.763969020601810378e+00,-5.176669700584466227e+01,3.680797374251832821e+01
2.591874838270033177e+00,-5.185613733045160956e+01,3.678850363499677201e+01
1.417850715870204281e+00,-5.191517347542318106e+01,3.677428944119497345e+01
2.427039241427480232e-01,-5.194376974021471938e+01,3.676534477631615516e+01
-9.327575425825254118e-01,-5.194191118129414519e+01,3.676167943921208092e+01
-2.107725519353646160e+00,-5.190960362403094308e+01,3.676329940870233060e+01
-3.281392223694364230e+00,-5.184687366035211653e+01,3.677020684261019312e+01
-4.452950808453320697e+00,-5.175376863216494172e+01,3.678240007950970636e+01
-5.621595914025421692e+00,-5.163035660055800946e+01,3.679987364317550202e+01
-6.786524219566650196e+00,-5.147672630080002421e+01,3.682261824972690789e+01
-7.946934992824429500e+00,-5.129298708316683530e+01,3.685062081745492435e+01
-9.102030638206406010e+00,-5.107926883963624931e+01,3.688386447931932821e+01
-1.025101724271180892e+01,-5.083572191650015526e+01,3.692232859810184209e+01
-1.139310511935110704e+01,-5.056251701295295931e+01,3.696598878419893452e+01
-1.252750934768121205e+01,-5.025984506572523713e+01,3.701481691603675728e+01
-1.365345031108566864e+01,-4.992791711984071412e+01,3.706878116308882909e+01
-1.477015423043133246e+01,-4.956696418558475159e+01,3.712784601147522778e+01
-1.587685369373558153e+01,-4.917723708178142772e+01,3.719197229212068123e+01
-1.697278818148098978e+01,-4.875900626548591532e+01,3.726111721144774691e+01
-1.805720458721705057e+01,-4.831256164820843679e+01,3.733523438457829968e+01
-1.912935773309212095e+01,-4.783821239879501519e+01,3.741427387101690982e+01
-2.018851087996204896e+01,-4.733628673309930690e+01,3.749818221278627561e+01
-2.123393623172562883e+01,-4.680713169058952872e+01,3.758690247498467585e+01
-2.226491543354115876e+01,-4.625111289804247861e+01,3.768037428873322625e+01
-2.328074006358239245e+01,-4.566861432048660419e+01,3.777853389647926008e+01
-2.428071211799673534e+01,-4.506003799956367573e+01,3.788131419962103763e+01
-2.526414448873314100e+01,-4.442580377948849701e+01,3.798864480841704960e+01
-2.623036143391201236e+01,-4.376634902079347000e+01,3.810045209414236922e+01
-2.717869904041469908e+01,-4.308212830205420829e+01,3.821665924345203535e+01
-2.810850567837520231e+01,-4.237361310979952833e+01,3.833718631491186102e+01
-2.901914244726267711e+01,-4.164129151681879648e+01,3.846195029765339513e+01
-2.990998361324859900e+01,-4.088566784908578455e+01,3.859086517211065370e+01
-3.078041703755896918e+01,-4.010726234152786418e+01,3.872384197279328077e+01
-3.162984459551753602e+01,-3.930661078287502619e+01,3.886078885305084896e+01
-3.245768258599300538e+01,-3.848426414983293142e+01,3.900161115178037363e+01
-3.326336213096919181e+01,-3.764078823082948588e+01,3.914621146202939883e+01
-3.404632956496432428e+01,-3.677676323959305904e+01,3.929448970144446918e+01
-3.480604681403242751e+01,-3.589278341882657486e+01,3.944634318451497990e+01
-3.554199176408678085e+01,-3.498945663424910890e+01,3.960166669655978211e+01
-3.625365861829312308e+01,-3.406740395928272847e+01,3.976035256940447482e+01
-3.694055824328724924e+01,-3.312725925066920496e+01,3.992229075869499866e+01
-3.760221850397981314e+01,-3.216966871530711813e+01,4.008736892279249986e+01
-3.823818458671863141e+01,-3.119529046860611743e+01,4.025547250319414161e+01
-3.884801931058694180e+01,-3.020479408466059823e+01,4.042648480642241537e+01
-3.943130342662411181e+01,-2.919886013855154516e+01,4.060028708732549063e+01
-3.998763590476356455e+01,-2.817817974108930557e+01,4.077675863373021059e+01
-4.051663420829129336e+01,-2.714345406631673896e+01,4.095577685238779253e+01
-4.101793455563652913e+01,-2.609539387209599681e+01,4.113721735615260400e+01
-4.149119216931526921e+01,-2.503471901410762968e+01,4.132095405233278029e+01
-4.193608151185573263e+01,-2.396215795359510281e+01,4.150685923215101525e+01
-4.235229650854405037e+01,-2.287844725919181954e+01,4.169480366125329596e+01
-4.273955075683741711e+01,-2.178433110317219956e+01,4.188465667120269842e+01
-4.309757772230101125e+01,-2.068056075247203296e+01,4.207628625189460081e+01
-4.342613092093442617e+01,-1.956789405482689048e+01,4.226955914482927312e+01
-4.372498408776230860e+01,-1.844709492038082388e+01,4.246434093717726910e+01
-4.399393133157384739e+01,-1.731893279912049977e+01,4.266049615657287575e+01
-4.423278727570477997e+01,-1.618418215449314701e+01,4.285788836656958267e+01
-4.444138718476536098e+01,-1.504362193356903887e+01,4.305638026269225804e+01
-4.461958707722737927e+01,-1.389803503411174290e+01,4.325583376901980870e+01
-4.476726382379291636e+01,-1.274820776892131313e+01,4.345611013523159727e+01
-4.488431523147740165e+01,-1.159492932781773433e+01,4.365707003405134401e+01
-4.497066011334918301e+01,-1.043899123763343972e+01,4.385857365902113258e+01
-4.502623834387778601e+01,-9.281186820585100250e+00,4.406048082253903431e+01
-4.505101089985274143e+01,-8.122310651395968861e+00,4.426265105409272138e+01
-4.504495988684500674e+01,-6.963158013540997615e+00,4.446494369862198681e+01
-4.500808855119254304e+01,-5.804524354987492529e+00,4.466721801494312416e+01
-4.494042127750203974e+01,-4.647204743804526750e+00,4.486933327416745954e+01
-4.484200357166806583e+01,-3.491993324014259770e+00,4.507114885804738691e+01
-4.471290202942154934e+01,-2.339682772058339300e+00,4.527252435718236967e+01
-4.455320429042878061e+01,-1.191063754252105866e+00,4.547331966901816003e+01
-4.436301897797252991e+01,-4.692438559837712464e-02,4.567339509557267974e+01
-4.414247562425637739e+01,1.091950309667664154e+00,4.587261144082157216e+01
-4.389172458138344979e+01,2.224778935433105342e+00,4.607083010767786391e+01
-4.361093691807056416e+01,3.350784258592658826e+00,4.626791319449901607e+01
-4.330030430216833537e+01,4.469193741097778450e+00,4.646372359105667016e+01
-4.296003886906781588e+01,5.579240068805320085e+00,4.665812507390320718e+01
-4.259037307608375045e+01,6.680161676762306655e+00,4.685098240107105738e+01
-4.219155954291413479e+01,7.771203270567255572e+00,4.704216140604006569e+01
-4.176387087828543088e+01,8.851616343450018576e+00,4.723152909090959639e+01
-4.130759949290209221e+01,9.920659688715847579e+00,4.741895371871211040e+01
-4.082305739882861673e+01,1.097759990720204115e+01,4.760430490480590038e+01
-4.031057599544140402e+01,1.202171190939935563e+01,4.778745370728497477e+01
-3.977050584209733586e+01,1.305227941189367158e+01,4.796827271634525403e+01
-3.920321641767443310e+01,1.406859542778725114e+01,4.814663614254644841e+01
-3.860909586714966935e+01,1.506996275076377501e+01,4.832241990391025155e+01
-3.798855073538741323e+01,1.605569443246459471e+01,4.849550171179601676e+01
-3.734200568832081046e+01,1.702511425284906110e+01,4.866576115549582227e+01
-3.666990322171731975e+01,1.797755718321622709e+01,4.883307978549233752e+01
-3.597270335772781635e+01,1.891236984157040268e+01,4.899734119532291032e+01
-3.525088332942717528e+01,1.982891094001815802e+01,4.915843110199516275e+01
-3.450493725356257357e+01,2.072655172388992995e+01,4.931623742489979634e+01
-3.373537579173363099e+01,2.160467640228494091e+01,4.947065036316765685e+01
-3.294272580023659458e+01,2.246268256974427757e+01,4.962156247141879817e+01
-3.212752996881250311e+01,2.329998161876266494e+01,4.976886873385320342e+01
-3.129034644854686675e+01,2.411599914285598345e+01,4.991246663663289240e+01
-3.043174846917574428e+01,2.491017532990831285e+01,5.005225623850708416e+01
-2.955232394606061419e+01,2.568196534552813759e+01,5.018814023963329163e+01
-2.865267507710118622e+01,2.643083970615137090e+01,5.032002404854775790e+01
-2.773341792986244769e+01,2.715628464163453160e+01,5.044781584724089640e+01
-2.679518201919881903e+01,2.785780244708992015e+01,5.057142665429388018e+01
-2.583860987566492184e+01,2.853491182372095736e+01,5.069077038603433039e+01
-2.486435660500857736e+01,2.918714820842416913e+01,5.080576391567021233e+01
-2.387308943904800174e+01,2.981406409193144214e+01,5.091632713036253932e+01
-2.286548727824094840e+01,3.041522932527433554e+01,5.102238298619868573e+01
-2.184224022625914685e+01,3.099023141436008544e+01,5.112385756102995771e+01
-2.080404911688715330e+01,3.153867580245753288e+01,5.122068010513787328e+01
-1.975162503356959576e+01,3.206018614039835768e+01,5.131278308969601909e+01
-1.868568882193630643e+01,3.255440454430902264e+01,5.140010225299477753e+01
-1.760697059563913669e+01,3.302099184069611226e+01,5.148257664439858416e+01
-1.651620923583924494e+01,3.345962779871686621e+01,5.156014866600663282e+01
-1.541415188468787711e+01,3.387001134947530545e+01,5.163276411198942384e+01
-1.430155343314746652e+01,3.425186079219413671e+01,5.170037220557512114e+01
-1.317917600350451224e+01,3.460491398712004241e+01,5.176292563366151711e+01
-1.204778842692839369e+01,3.492892853503034445e+01,5.182038057903089623e+01
-1.090816571643438948e+01,3.522368194321772705e+01,5.187269675014665893e+01
-9.761088535612044481e+00,3.548897177783909029e+01,5.191983740851202356e+01
-8.607342663482894451e+00,3.572461580252385005e+01,5.196176939357353319e+01
-7.447718455854300146e+00,3.593045210314622295e+01,5.199846314515273349e+01
-6.283010303538580921e+00,3.610633919867633779e+01,5.202989272339181781e+01
-5.114016087808576749e+00,3.625215613803334946e+01,5.205603582620069147e+01
-3.941536633462978223e+00,3.636780258287436141e+01,5.207687380419382350e+01
-2.766375159876094170e+00,3.645319887626219213e+01,5.209239167310815333e+01
-1.589336730408378306e+00,3.650828609716455730e+01,5.210257812369411567e+01
-4.112277005548935493e-01,3.653302610074710799e+01,5.210742552907383640e+01
7.671448347900209352e-01,3.652740154443266363e+01,5.210692994956251312e+01
1.944973594573087494e+00,3.649141589970862043e+01,5.210109113495023081e+01
3.121451664948336369e+00,3.642509344967394469e+01,5.208991252424377194e+01
4.295773052390024382e+00,3.632847927232769081e+01,5.207340124286896099e+01
5.467133236173189914e+00,3.620163920960975901e+01,5.205156809733693990e+01
6.634729719843202034e+00,3.604465982221559983e+01,5.202442756737785601e+01
7.797762581296415973e+00,3.585764833021492848e+01,5.199199779554911061e+01
8.955435021094947601e+00,3.564073253951564624e+01,5.195430057432518822e+01
1.010695390863978993e+01,3.539406075422281361e+01,5.191136133067899294e+01
1.125153032582799462e+01,3.511780167495260940e+01,5.186320910816606045e+01
1.238838010782139598e+01,3.481214428317071707e+01,5.180987654652451369e+01
1.351672438055616787e+01,3.447729771163486134e+01,5.175139985880506543e+01
1.463579009462498171e+01,3.411349110102908355e+01,5.168781880604796442e+01
1.574481055516581840e+01,3.372097344288874865e+01,5.161917666952447803e+01
1.684302594739433800e+01,3.330001340892358286e+01,5.154552022056259375e+01
1.792968385741962223e+01,3.285089916685507916e+01,5.146689968797842596e+01
1.900403978798638249e+01,3.237393818289524461e+01,5.138336872313583825e+01
2.006535766879024152e+01,3.186945701100095363e+01,5.129498436265917150e+01
2.111291036101629004e+01,3.133780106904895035e+01,5.120180698882496273e+01
2.214598015575516854e+01,3.077933440208440175e+01,5.110390028766035897e+01
2.316385926595523159e+01,3.019443943280530007e+01,5.100133120477745763e+01
2.416585031157339358e+01,2.958351669945349727e+01,5.089416989897424060e+01
2.515126679759246642e+01,2.894698458129186491e+01,5.078248969363459508e+01
2.611943358457724429e+01,2.828527901185578841e+01,5.066636702596095176e+01
2.706968735144682370e+01,2.759885318017513356e+01,5.054588139407493941e+01
2.800137705014619627e+01,2.688817722017172329e+01,5.042111530202247138e+01
2.891386435190529269e+01,2.615373788844461700e+01,5.029215420272178960e+01
2.980652408477984139e+01,2.539603823066453359e+01,5.015908643889340368e+01
3.067874466217412177e+01,2.461559723680518985e+01,5.002200318201339257e+01
3.152992850205188091e+01,2.381294948544855217e+01,4.988099836933166387e+01
3.235949243654828678e+01,2.298864477740697154e+01,4.973616863899912488e+01
3.316686811170200144e+01,2.214324775891384789e+01,4.958761326334829533e+01
3.395150237703364837e+01,2.127733753464045208e+01,4.943543408037352549e+01
3.471285766470347767e+01,2.039150727080449244e+01,4.927973542345795721e+01
3.545041235798860413e+01,1.948636378864192764e+01,4.912062404939580773e+01
3.616366114882709581e+01,1.856252714852089980e+01,4.895820906475942991e+01
3.685211538418413824e+01,1.762063022498268694e+01,4.879260185066200251e+01
3.751530340100253369e+01,1.666131827300063506e+01,4.862391598596746434e+01
3.815277084950843545e+01,1.568524848575463082e+01,4.845226716900075559e+01
3.876408100465042850e+01,1.469308954422376701e+01,4.827777313781199098e+01
3.934881506545855956e+01,1.368552115890614829e+01,4.810055358904973843e+01
3.990657244211847399e+01,1.266323360397952058e+01,4.792073009549876872e+01
4.043697103056340580e+01,1.162692724422229240e+01,4.773842602233931842e+01
4.093964747439638074e+01,1.057731205501895921e+01,4.755376644218510762e+01
4.141425741396270865e+01,9.515107135778675840e+00,4.736687804895892384e+01
4.186047572240241266e+01,8.441040217100706400e+00,4.717788907066428550e+01
4.227799672852052026e+01,7.355847162024457653e+00,4.698692918111371597e+01
4.266653442632275528e+01,6.260271461705466223e+00,4.679412941067388942e+01
4.302582267107290193e+01,5.155063725863485047e+00,4.659962205608890429e+01
4.335561536173749175e+01,4.040981168351493125e+00,4.640354058944380000e+01
4.365568660969280046e+01,2.918787088198270041e+00,4.620601956633053931e+01
4.392583089357855641e+01,1.789250346480319331e+00,4.600719453327955222e+01
4.416586320019227685e+01,6.531448393812301356e-01,4.580720193452042110e+01
4.437561915132756241e+01,-4.887510321999025131e-01,4.560617901813555619e+01
4.455495511646959272e+01,-1.635654896127922697e+00,4.540426374167115142e+01
4.470374831127045212e+01,-2.786780945233156448e+00,4.520159467727043534e+01
4.482189688173694009e+01,-3.941340475867463944e+00,4.499831091639367742e+01
4.490931997407305687e+01,-5.098542428446049435e+00,4.479455197419102319e+01
4.496595779012941563e+01,-6.257593929604297500e+00,4.459045769359303790e+01
4.499177162842147482e+01,-7.417700835598169284e+00,4.438616814918495379e+01
4.498674391068863088e+01,-8.578068276575828932e+00,4.418182355093062341e+01
4.495087819397586060e+01,-9.737901201347412439e+00,4.397756414781178336e+01
4.488419916822966371e+01,-1.089640492227961310e+01,4.377353013144902860e+01
4.478675263941006790e+01,-1.205278565994158413e+01,4.356986153977013032e+01
4.465860549813011460e+01,-1.320625108712914120e+01,4.336669816079206186e+01
4.449984567384446166e+01,-1.435601087189402314e+01,4.316417943658233725e+01
4.431058207461839515e+01,-1.550127721920645030e+01,4.296244436746550122e+01
4.409094451251878155e+01,-1.664126541087950173e+01,4.276163141654042477e+01
4.384108361467762904e+01,-1.777519434338530857e+01,4.256187841457378340e+01
4.356117072008984792e+01,-1.890228706319468088e+01,4.236332246533468293e+01
4.325139776221534760e+01,-2.002177129927288135e+01,4.216609985143534800e+01
4.291197713746637987e+01,-2.113287999236704806e+01,4.197034594074238356e+01
4.254314155966999778e+01,-2.223485182072212396e+01,4.177619509342259363e+01
4.214514390060558213e+01,-2.332693172186533204e+01,4.158378056968674485e+01
4.171825701672648989e+01,-2.440837141010122835e+01,4.139323443829496085e+01
4.126277356218488279e+01,-2.547842988936307407e+01,4.120468748588574925e+01
4.077900578828764111e+01,-2.653637396106857693e+01,4.101826912719111107e+01
4.026728532952091655e+01,-2.758147872663242239e+01,4.083410731619892431e+01
3.972796297629005835e+01,-2.861302808429077160e+01,4.065232845832366593e+01
3.916140843453042919e+01,-2.963031521989748285e+01,4.047305732364505104e+01
3.856801007235420542e+01,-3.063264309135556474e+01,4.029641696127444561e+01
3.794817465390649858e+01,-3.161932490635189552e+01,4.012252861490750178e+01
3.730232706061336501e+01,-3.258968459306766619e+01,3.995151163962049168e+01
3.663091000001277564e+01,-3.354305726354223083e+01,3.978348341996751714e+01
3.593438370236798818e+01,-3.447878966937243206e+01,3.961855928943454330e+01
